timestamp_iso,timestamp_epoch_s,pose_x [m],pose_y [m],pose_z [m],state.speed [m/s],state.landed_state,Imu.angular_velocity.x_val [rad/s],Imu.angular_velocity.y_val [rad/s],Imu.angular_velocity.z_val [rad/s],Imu.linear_acceleration.x_val [m/s^2],Imu.linear_acceleration.y_val [m/s^2],Imu.linear_acceleration.z_val [m/s^2],Imu.orientation.w_val,Imu.orientation.x_val,Imu.orientation.y_val,Imu.orientation.z_val,Imu.time_stamp,Gps.gnss.eph,Gps.gnss.epv,Gps.gnss.fix_type,Gps.gnss.geo_point.altitude [m],Gps.gnss.geo_point.latitude [deg],Gps.gnss.geo_point.longitude [deg],Gps.gnss.time_utc,Gps.gnss.velocity.x_val,Gps.gnss.velocity.y_val,Gps.gnss.velocity.z_val,Gps.is_valid,Gps.time_stamp,Barometer.altitude [m],Barometer.pressure [Pa],Barometer.qnh [Pa],Barometer.time_stamp,Magnetometer.magnetic_field_body.x_val [T],Magnetometer.magnetic_field_body.y_val [T],Magnetometer.magnetic_field_body.z_val [T],Magnetometer.time_stamp [T],Lidar1.point_count [count],Lidar1.pose.orientation.w_val,Lidar1.pose.orientation.x_val,Lidar1.pose.orientation.y_val,Lidar1.pose.orientation.z_val,Lidar1.pose.position.x_val,Lidar1.pose.position.y_val,Lidar1.pose.position.z_val,Lidar1.time_stamp
2026-03-04T19:35:32.331+01:00,1772649332.332,6.302291808424343e-07,7.723819805960375e-08,6.697775840759277,0.0,0,0.0,0.0,0.0,0.0,0.0,-9.806650161743164,0.9999998807907104,0.0,0.0,1.7097477211791556e-08,1.7726493323021583e+18,0.10000006854534149,0.10000006854534149,3.0,51.20231628417969,43.61082784765589,3.8768662532304945,1772649332080688.0,0.0,0.0,0.0,1.0,1.772649332080688e+18,50.93325424194336,100714.3828125,1013.25,1.7726493322871409e+18,0.2971569299697876,0.009332401677966118,0.17883335053920746,1.7726493322871608e+18,8192.0,0.9999998807907104,0.0,0.0,0.0,0.0,0.0,0.0,1.7726493321498322e+18
2026-03-04T19:35:32.501+01:00,1772649332.502,6.302291808424343e-07,7.723819805960375e-08,6.697775840759277,0.0,0,0.0,0.0,0.0,0.0,0.0,-9.806650161743164,0.9999998807907104,0.0,0.0,1.7097477211791556e-08,1.77264933248955e+18,0.10000006854534149,0.10000006854534149,3.0,51.20231628417969,43.61082784765589,3.8768662532304945,1772649332266024.0,0.0,0.0,0.0,1.0,1.7726493322660242e+18,51.49049377441406,100707.703125,1013.25,1.7726493324864294e+18,0.30054494738578796,0.002567376010119915,0.17034824192523956,1.7726493324864445e+18,8192.0,0.9999998807907104,0.0,0.0,0.0,0.0,0.0,0.0,1.7726493323593165e+18
2026-03-04T19:35:32.706+01:00,1772649332.706,6.302291808424343e-07,7.723819805960375e-08,6.697775840759277,0.0,0,0.0,0.0,0.0,0.0,0.0,-9.806650161743164,0.9999998807907104,0.0,0.0,1.7097477211791556e-08,1.772649332691736e+18,0.1000000610947609,0.1000000610947609,3.0,51.20231628417969,43.61082784765589,3.8768662532304945,1772649332465429.0,0.0,0.0,0.0,1.0,1.7726493324654295e+18,51.27129364013672,100710.3203125,1013.25,1.77264933268544e+18,0.296341210603714,0.01000965666025877,0.1856749802827835,1.7726493326854556e+18,8192.0,0.9999998807907104,0.0,0.0,0.0,0.0,0.0,0.0,1.7726493325658698e+18
2026-03-04T19:35:32.905+01:00,1772649332.905,6.302291808424343e-07,7.723819805960375e-08,6.697775840759277,0.0,0,0.0,0.0,0.0,0.0,0.0,-9.806650161743164,0.9999998807907104,0.0,0.0,1.7097477211791556e-08,1.7726493328906196e+18,0.1000000536441803,0.1000000536441803,3.0,51.20231628417969,43.61082784765589,3.8768662532304945,1772649332685446.0,0.0,0.0,0.0,1.0,1.7726493326854467e+18,51.53010940551758,100707.25,1013.25,1.7726493328935347e+18,0.2851172387599945,0.012805717997252941,0.17292851209640503,1.7726493328935698e+18,8192.0,0.9999998807907104,0.0,0.0,0.0,0.0,0.0,0.0,1.7726493327598167e+18
2026-03-04T19:35:33.111+01:00,1772649333.112,6.302291808424343e-07,7.723819805960375e-08,6.697775840759277,0.0,0,0.0,0.0,0.0,0.0,0.0,-9.806650161743164,0.9999998807907104,0.0,0.0,1.7097477211791556e-08,1.7726493330945172e+18,0.1000000536441803,0.1000000536441803,3.0,51.20231628417969,43.61082784765589,3.8768662532304945,1772649332872510.0,0.0,0.0,0.0,1.0,1.772649332872511e+18,51.223758697509766,100710.890625,1013.25,1.7726493330789345e+18,0.2957395017147064,0.005593275185674429,0.17167596518993378,1.7726493330789514e+18,8192.0,0.9999998807907104,0.0,0.0,0.0,0.0,0.0,0.0,1.7726493329593375e+18
2026-03-04T19:35:33.308+01:00,1772649333.31,6.302291808424343e-07,7.723819805960375e-08,6.697775840759277,0.01038909237831831,1,-2.2442777662945446e-06,3.7626111861754907e-06,2.4491689032402064e-07,7.401356416636418e-09,4.405040776589431e-09,-15.289459228515625,1.0,-4.003856357570612e-09,7.856597150635025e-09,1.7566641474786593e-08,1.7726493332949174e+18,0.1000000536441803,0.1000000536441803,3.0,51.20231628417969,43.61082784765589,3.8768662532304945,1772649333078941.0,0.0,0.0,0.0,1.0,1.7726493330789417e+18,50.95174026489258,100714.1640625,1013.25,1.7726493332827576e+18,0.29156211018562317,0.007041235454380512,0.17174120247364044,1.772649333282773e+18,8192.0,0.9999998807907104,0.0,0.0,0.0,0.0,0.0,0.0,1.7726493331559503e+18
2026-03-04T19:35:33.508+01:00,1772649333.509,6.445425810852612e-07,8.992233802018745e-08,6.633166790008545,0.44591730833077325,1,-3.415567789488705e-06,4.210914539726218e-06,-2.6411619558075472e-08,4.541441001038038e-08,3.7163143673524246e-08,-9.857523918151855,1.0,1.4476395904239325e-07,-1.0779039172348348e-07,2.5071502207651974e-08,1.7726493334939343e+18,0.1000000536441803,0.1000000536441803,3.0,51.20231628417969,43.61082784765589,3.8768662532304945,1772649333282764.0,0.0,0.0,0.0,1.0,1.7726493332827643e+18,51.023048400878906,100713.3046875,1013.25,1.7726493334838643e+18,0.3045455813407898,0.012911890633404255,0.17945390939712524,1.7726493334838804e+18,8192.0,0.9999998807907104,0.0,0.0,0.0,0.0,0.0,0.0,1.7726493333580032e+18
2026-03-04T19:35:33.710+01:00,1772649333.71,7.501180334656965e-07,1.9243543647462502e-07,6.540970325469971,0.45621174574029166,1,-7.208952297332871e-07,5.887502538826084e-06,-2.497750228869222e-09,1.5293923638637352e-07,1.9393723960092757e-08,-9.84813117980957,1.0,4.91543623581947e-08,-2.3879198352005915e-07,2.402972043569207e-08,1.7726493336973632e+18,0.1000000536441803,0.1000000536441803,3.0,51.269596099853516,43.61082784765603,3.87686625323067,1772649333483870.0,3.149544056668674e-07,2.8589869316419936e-07,-0.44545379281044006,1.0,1.7726493334838702e+18,51.25016784667969,100710.578125,1013.25,1.7726493336883845e+18,0.29810264706611633,0.0050516314804553986,0.178450345993042,1.7726493336883996e+18,8192.0,0.9999998807907104,0.0,0.0,0.0,0.0,0.0,0.0,1.7726493336670572e+18
2026-03-04T19:35:33.913+01:00,1772649333.913,9.779046195035335e-07,3.456227091191977e-07,6.448209285736084,0.4643889963656696,1,-2.0423068747277284e-07,5.928316568315495e-06,1.2118906767000226e-08,8.191813449798246e-09,2.8362251436320207e-10,-9.840621948242188,1.0,1.170240260250921e-08,-2.11692878337999e-07,2.4420854671802772e-08,1.7726493338933893e+18,0.1000000536441803,0.1000000536441803,3.0,51.33030319213867,43.61082784765658,3.87686625323142,1772649333667323.0,7.105493864401069e-07,6.671711503258848e-07,-0.45469391345977783,1.0,1.7726493336673236e+18,51.2607307434082,100710.453125,1013.25,1.772649333887248e+18,0.3020694851875305,0.007664608769118786,0.1762729436159134,1.7726493338872643e+18,8192.0,0.9999998807907104,0.0,0.0,0.0,0.0,0.0,0.0,1.7726493338658455e+18
2026-03-04T19:35:34.109+01:00,1772649334.109,1.3141756198820076e-06,5.109230869493331e-07,6.354784965515137,0.4709095358893227,1,-1.3970478107694362e-07,1.7291415588260861e-06,-3.074857035656464e-09,3.1109843590115815e-09,2.500830098561835e-10,-9.833695411682129,1.0,-1.9670003403859937e-09,-2.9562697179130737e-08,2.511167451757501e-08,1.7726493340963192e+18,0.1000000536441803,0.1000000536441803,3.0,51.4218864440918,43.61082784765824,3.8768662532331772,1772649333866066.0,1.3377135701375664e-06,8.066134569162386e-07,-0.46316227316856384,1.0,1.772649333866066e+18,51.266014099121094,100710.3828125,1013.25,1.7726493340871235e+18,0.2918502688407898,0.00871204398572445,0.18317195773124695,1.772649334087143e+18,8192.0,0.9999998807907104,0.0,0.0,0.0,0.0,0.0,0.0,1.7726493340656783e+18
2026-03-04T19:35:34.313+01:00,1772649334.314,1.686992163740797e-06,6.800298137932259e-07,6.259624004364014,0.47620049119388247,1,-1.2399492277381796e-07,4.556808335109963e-07,-2.7782469658177433e-09,3.4242012003637967e-10,9.273489615102548e-11,-9.828289031982422,1.0,9.622329599778823e-09,9.925443578140403e-08,2.448741298621826e-08,1.772649334297393e+18,0.1000000536441803,0.1000000536441803,3.0,51.546722412109375,43.6108278476621,3.8768662532358973,1772649334087130.0,1.8694831851462368e-06,8.335057941621926e-07,-0.4707382619380951,1.0,1.77264933408713e+18,51.699127197265625,100705.203125,1013.25,1.7726493342883095e+18,0.29446664452552795,0.01127356942743063,0.18062476813793182,1.7726493342883249e+18,8192.0,0.9999998807907104,0.0,0.0,0.0,0.0,0.0,0.0,1.7726493342667374e+18
2026-03-04T19:35:34.510+01:00,1772649334.511,1.998928610191797e-06,8.57347743021819e-07,6.162718296051025,0.48046365380537515,1,-2.467806226036373e-08,4.015882382191194e-08,-1.530136795047099e-09,1.0072561534846258e-10,6.200848168269602e-11,-9.823622703552246,1.0,1.9219390523517177e-09,1.2739758403768064e-07,2.4361320072330273e-08,1.772649334497041e+18,0.1000000536441803,0.1000000536441803,3.0,51.64189529418945,43.610827847665455,3.8768662532379934,1772649334288316.0,1.7414221247236128e-06,8.629805279269931e-07,-0.4760661721229553,1.0,1.772649334288316e+18,51.746665954589844,100704.65625,1013.25,1.7726493344907868e+18,0.30345988273620605,0.018547846004366875,0.18316836655139923,1.772649334490803e+18,8192.0,0.9999998807907104,0.0,0.0,0.0,0.0,0.0,0.0,1.7726493344695347e+18
2026-03-04T19:35:34.714+01:00,1772649334.714,2.2096226075518643e-06,1.0341123015678022e-06,6.066433429718018,0.4838074445738876,1,5.548200476823695e-08,-2.607723956771224e-07,-1.3588856706547858e-09,-2.787147845850768e-09,-5.677365799705569e-10,-9.820319175720215,1.0,2.8039397470536187e-09,1.1782138642502105e-07,2.400140353131519e-08,1.7726493346979023e+18,0.1000000536441803,0.1000000536441803,3.0,51.73881530761719,43.61082784766825,3.8768662532401903,1772649334490792.0,1.290633917960804e-06,8.820161951916816e-07,-0.48035940527915955,1.0,1.7726493344907927e+18,51.92096710205078,100702.578125,1013.25,1.772649334690834e+18,0.2907942831516266,0.006530510727316141,0.17360322177410126,1.7726493346908495e+18,8192.0,0.9999998807907104,0.0,0.0,0.0,0.0,0.0,0.0,1.7726493346695012e+18
2026-03-04T19:35:34.912+01:00,1772649334.912,2.3264033188752364e-06,1.2143766525696265e-06,5.968748092651367,0.486416488886836,1,-1.4226935718397726e-07,-1.7113143258029595e-07,-3.075302235089339e-09,-1.0593345090015305e-09,8.804998397060615e-10,-9.817502975463867,1.0,1.2925238657146565e-09,1.0077997814050832e-07,2.3914990876505726e-08,1.7726493348985815e+18,0.1000000536441803,0.1000000536441803,3.0,51.835628509521484,43.61082784767014,3.876866253242392,1772649334690840.0,7.931087679935445e-07,8.879246706783306e-07,-0.48370832204818726,1.0,1.7726493346908406e+18,51.611976623535156,100706.2578125,1013.25,1.7726493348919693e+18,0.305044561624527,0.00435646902769804,0.17383426427841187,1.7726493348919867e+18,8192.0,0.9999998807907104,0.0,0.0,0.0,0.0,0.0,0.0,1.772649334772251e+18
2026-03-04T19:35:35.113+01:00,1772649335.115,2.3605546175531344e-06,1.3975629826745717e-06,5.86981725692749,0.48854023218237574,1,-7.221012054969833e-08,-3.8676563463013736e-07,8.48333403524748e-09,-2.667886800367114e-09,4.980922341246696e-10,-9.816221237182617,1.0,-4.719552304521812e-09,8.658837913344541e-08,2.4048196323178672e-08,1.772649335098136e+18,0.1000000536441803,0.1000000536441803,3.0,51.93296432495117,43.610827847671175,3.8768662532446174,1772649334891975.0,3.5040633861171955e-07,9.030769092532864e-07,-0.48634931445121765,1.0,1.7726493348919757e+18,52.01340103149414,100701.4609375,1013.25,1.7726493350944317e+18,0.2963982820510864,0.00795344915241003,0.1801714450120926,1.772649335094447e+18,8192.0,0.9999998807907104,0.0,0.0,0.0,0.0,0.0,0.0,1.77264933497846e+18
2026-03-04T19:35:35.313+01:00,1772649335.314,2.323289663763717e-06,1.581303422426572e-06,5.7683305740356445,0.4903501868256818,1,-3.342006493767258e-08,-1.3987728664233146e-07,-3.5234553052987394e-09,-5.298900762618075e-10,1.204513988550815e-10,-9.815563201904297,1.0,-9.091386310444705e-09,6.017513243250505e-08,2.388932962560375e-08,1.772649335299627e+18,0.1000000536441803,0.1000000536441803,3.0,52.031681060791016,43.610827847671466,3.8768662532468823,1772649335094438.0,-2.5027746985983867e-08,8.985174417830422e-07,-0.48850417137145996,1.0,1.7726493350944387e+18,51.59349060058594,100706.46875,1013.25,1.7726493353022395e+18,0.3010845482349396,0.007416639477014542,0.1832915097475052,1.7726493353022528e+18,8192.0,0.9999998807907104,0.0,0.0,0.0,0.0,0.0,0.0,1.7726493351713856e+18
2026-03-04T19:35:35.516+01:00,1772649335.517,2.242691834908328e-06,1.7411304042980191e-06,5.67620325088501,0.4918270409117112,1,2.832967815891152e-08,-1.376855038870417e-07,-1.6485603993032782e-08,-3.119529357054063e-10,-6.457995249675719e-11,-9.814119338989258,1.0,-8.44886116624366e-09,4.5085130295774434e-08,2.2647837383260594e-08,1.7726493354995576e+18,0.1000000536441803,0.1000000536441803,3.0,52.09866714477539,43.6108278476713,3.876866253248393,1772649335281215.0,-3.101737604538357e-07,8.725280054022733e-07,-0.49012696743011475,1.0,1.7726493352812155e+18,52.40161895751953,100696.828125,1013.25,1.7726493354842335e+18,0.2950114607810974,0.02335486188530922,0.17875690758228302,1.7726493355053417e+18,8192.0,0.9999998807907104,0.0,0.0,0.0,0.0,0.0,0.0,1.7726493353679867e+18
2026-03-04T19:35:35.720+01:00,1772649335.721,2.1133416794327786e-06,1.9158280792908045e-06,5.5710015296936035,0.4930349886428681,1,1.4752014010355197e-07,-1.9410529716878955e-07,-1.449197384317813e-08,-7.478302421759508e-10,-5.851582551841261e-10,-9.813154220581055,1.0,-4.35116609409647e-09,2.946740629283795e-08,2.0914725951115543e-08,1.772649335700966e+18,0.1000000536441803,0.1000000536441803,3.0,52.19801330566406,43.61082784767064,3.876866253250558,1772649335484236.0,-5.184913902667176e-07,8.338284942510654e-07,-0.4916759133338928,1.0,1.7726493354842365e+18,52.13752365112305,100699.96875,1013.25,1.7726493357065782e+18,0.29848140478134155,0.017527787014842033,0.17825786769390106,1.7726493357065935e+18,8192.0,0.9999998807907104,0.0,0.0,0.0,0.0,0.0,0.0,1.7726493355715837e+18
2026-03-04T19:35:35.920+01:00,1772649335.921,1.97529925571871e-06,2.0656787000916665e-06,5.477566242218018,0.49402165413023796,1,4.8754866810440944e-08,-1.801331563910935e-07,-3.3939069332689087e-09,-4.713425760805023e-10,-1.3993960157332452e-10,-9.811776161193848,1.0,-7.73532615738759e-09,1.3403838039494076e-08,2.021372402793986e-08,1.7726493359058678e+18,0.1000000536441803,0.1000000536441803,3.0,52.332054138183594,43.610827847669206,3.876866253253329,1772649335706584.0,-6.871214850434626e-07,8.031174729694612e-07,-0.49306944012641907,1.0,1.7726493357065843e+18,52.68684005737305,100693.4140625,1013.25,1.7726493359086016e+18,0.29695913195610046,0.02349052205681801,0.18312661349773407,1.7726493359086172e+18,8192.0,0.9999998807907104,0.0,0.0,0.0,0.0,0.0,0.0,1.772649335887007e+18
2026-03-04T19:35:36.118+01:00,1772649336.119,1.807873900361301e-06,2.2059045932110166e-06,5.3721795082092285,0.6176598668105725,1,-1.7235651057490031e-06,-2.5944881798523056e-08,7.877378749299169e-09,-1.5273149411854092e-10,9.48375333820195e-09,-16.582679748535156,1.0,3.181007102170952e-08,4.539292941529993e-09,2.0517649801377047e-08,1.77264933610223e+18,0.1000000536441803,0.1000000536441803,3.0,52.39694595336914,43.61082784766835,3.8768662532546245,1772649335887228.0,-7.695097679061291e-07,7.745540528958372e-07,-0.4939102530479431,1.0,1.772649335887228e+18,52.79512023925781,100692.109375,1013.25,1.7726493361048868e+18,0.2951803505420685,0.007586630526930094,0.1740603744983673,1.7726493361048988e+18,8192.0,0.9999998807907104,0.0,0.0,0.0,0.0,0.0,0.0,1.7726493360835505e+18
2026-03-04T19:35:36.322+01:00,1772649336.323,1.6483402305311756e-06,2.3139680251915706e-06,5.136900424957275,1.610448241234123,1,-2.6467225779924775e-06,2.68262806457642e-06,-6.49484491077601e-07,4.617272786333615e-09,4.5550963001517175e-09,-9.794522285461426,1.0,9.403103717886552e-08,-1.2177805785995588e-07,2.368461426982549e-09,1.7726493363073193e+18,0.1000000536441803,0.1000000536441803,3.0,52.495967864990234,43.61082784766694,3.8768662532564533,1772649336083840.0,-8.034309075810597e-07,4.821116590392194e-07,-0.49472981691360474,1.0,1.7726493360838408e+18,52.52046203613281,100695.3828125,1013.25,1.772649336301116e+18,0.30281612277030945,0.009541270323097706,0.16946545243263245,1.77264933630113e+18,8192.0,0.9999998807907104,0.0,0.0,0.0,0.0,0.0,0.0,1.7726493362797996e+18
2026-03-04T19:35:36.519+01:00,1772649336.521,1.5436263538504136e-06,2.458011294947937e-06,4.830228328704834,1.5909034013750898,1,-8.054293516579492e-07,2.520486361845542e-07,-2.629192579206574e-07,1.04311970172688e-09,3.2108984360235127e-09,-9.713216781616211,1.0,5.4049198894290384e-08,-9.132801892519637e-08,-4.088010996383673e-08,1.7726493365051274e+18,0.1000000536441803,0.1000000536441803,3.0,52.768009185791016,43.61082784766503,3.876866253258223,1772649336301121.0,-7.541509603470331e-07,6.269533514569048e-07,-1.6102582216262817,1.0,1.7726493363011215e+18,52.895477294921875,100690.9140625,1013.25,1.7726493365077197e+18,0.2988423705101013,0.008279792033135891,0.18321235477924347,1.772649336507736e+18,8192.0,0.9999998807907104,0.0,0.0,0.0,0.0,0.0,0.0,1.772649336486364e+18
2026-03-04T19:35:36.723+01:00,1772649336.724,1.5210670198939624e-06,2.6606205665302696e-06,4.495607852935791,1.5729727745059408,1,-1.9120604122235818e-07,4.4980900781865785e-08,-9.899792985379463e-08,4.571254139107417e-11,1.943394889458716e-10,-9.730900764465332,1.0,9.262775435558979e-09,-8.294509257211757e-08,-5.787612522567542e-08,1.7726493367040696e+18,0.1000000536441803,0.1000000536441803,3.0,52.995506286621094,43.610827847664254,3.8768662532594953,1772649336486661.0,-2.9022288572377875e-07,8.757838827477826e-07,-1.593252182006836,1.0,1.7726493364866614e+18,53.4500732421875,100684.2734375,1013.25,1.772649336703967e+18,0.2927118241786957,0.017990615218877792,0.1730685979127884,1.7726493367039836e+18,8192.0,0.9999998807907104,0.0,0.0,0.0,0.0,0.0,0.0,1.7726493366826322e+18
2026-03-04T19:35:36.923+01:00,1772649336.924,1.56594990130543e-06,2.8657402708631707e-06,4.183102130889893,1.5582152605060822,1,-4.070990598847857e-06,3.4687051453374806e-08,-3.4822971173298356e-08,5.995589025253878e-10,9.554683089163518e-08,-9.747682571411133,1.0,-2.032473211954766e-08,-8.266635376230624e-08,-6.434949995082206e-08,1.7726493369093942e+18,0.1000000536441803,0.1000000536441803,3.0,53.40921401977539,43.61082784766392,3.876866253262533,1772649336703974.0,7.613201091771771e-08,1.00901820587751e-06,-1.5729806423187256,1.0,1.7726493367039744e+18,53.86734390258789,100679.2734375,1013.25,1.7726493369063913e+18,0.30267953872680664,0.009467939846217632,0.1805090606212616,1.772649336906405e+18,8192.0,0.9999998807907104,0.0,0.0,0.0,0.0,0.0,0.0,1.772649336885122e+18
2026-03-04T19:35:37.125+01:00,1772649337.126,1.6764394104029634e-06,3.043913693545619e-06,3.8673934936523438,1.5466020107271754,1,2.5504734821879538e-06,2.875746645258914e-07,-3.393097003367984e-08,4.4657408326820303e-10,-3.883640076196571e-09,-9.75790786743164,1.0,-2.5087615540542174e-07,-7.456974060460198e-08,-6.717297651448462e-08,1.7726493371067955e+18,0.1000000536441803,0.1000000536441803,3.0,53.72634506225586,43.61082784766433,3.876866253265115,1772649336906396.0,3.94317765994856e-07,1.0531791758694453e-06,-1.5582525730133057,1.0,1.7726493369063964e+18,53.86734390258789,100679.296875,1013.25,1.7726493371096584e+18,0.3041170537471771,0.018234863877296448,0.17550361156463623,1.772649337109674e+18,8192.0,0.9999998807907104,0.0,0.0,0.0,0.0,0.0,0.0,1.7726493370013558e+18
2026-03-04T19:35:37.327+01:00,1772649337.328,1.8515062265578308e-06,3.084644504269818e-06,3.546637773513794,1.5369542837145898,1,-1.0459581289978814e-07,5.839806362928357e-07,-2.3852884112329775e-08,5.035204253545089e-09,4.804499020849562e-10,-9.767318725585938,1.0,-3.103380663560529e-08,-3.4711288066091583e-08,-7.007887603549534e-08,1.772649337311973e+18,0.1000000536441803,0.1000000536441803,3.0,54.041748046875,43.61082784766534,3.8768662532672806,1772649337109665.0,7.192383009169134e-07,4.878907020611223e-07,-1.546464204788208,1.0,1.7726493371096653e+18,54.62265396118164,100670.2578125,1013.25,1.7726493373144146e+18,0.30125555396080017,0.018671898171305656,0.17827452719211578,1.7726493373144294e+18,8192.0,0.9999998807907104,0.0,0.0,0.0,0.0,0.0,0.0,1.7726493372005942e+18
2026-03-04T19:35:37.530+01:00,1772649337.531,2.0352947558421874e-06,3.0748778954148293e-06,3.261077404022217,1.5291969776156784,1,-2.6809036057784397e-07,6.195430160005344e-07,8.28264035135362e-09,4.420607491173456e-10,1.9228139913618492e-10,-9.773438453674316,1.0,-4.88709765988915e-08,2.6807608577428255e-08,-7.051627193277454e-08,1.772649337510843e+18,0.1000000536441803,0.1000000536441803,3.0,54.262718200683594,43.610827847666386,3.876866253267715,1772649337292939.0,9.393275490765518e-07,2.4758769257005042e-08,-1.5379103422164917,1.0,1.7726493372929398e+18,54.841854095458984,100667.640625,1013.25,1.772649337495109e+18,0.30235934257507324,0.021314658224582672,0.17316834628582,1.7726493375167956e+18,8192.0,0.9999998807907104,0.0,0.0,0.0,0.0,0.0,0.0,1.772649337404593e+18
2026-03-04T19:35:37.727+01:00,1772649337.728,2.2223416635824833e-06,3.0294168027467094e-06,2.9482479095458984,1.5230189561846315,1,-1.2010252703476e-07,2.489642554337479e-07,1.1116172871084018e-08,7.312261462999459e-09,3.4620861733003494e-09,-9.778099060058594,1.0,-5.596912799887832e-08,6.949240827225367e-08,-6.954248732427004e-08,1.7726493377121582e+18,0.1000000536441803,0.1000000536441803,3.0,54.57435989379883,43.61082784766816,3.876866253267682,1772649337495112.0,9.902998954203213e-07,-1.232865542988293e-07,-1.5299028158187866,1.0,1.7726493374951122e+18,54.469478607177734,100672.078125,1013.25,1.772649337700133e+18,0.2918454706668854,0.01422049943357706,0.17534150183200836,1.772649337700055e+18,8192.0,0.9999998807907104,0.0,0.0,0.0,0.0,0.0,0.0,1.772649337602373e+18
2026-03-04T19:35:37.930+01:00,1772649337.931,2.329263452338637e-06,2.967071395687526e-06,2.7157957553863525,1.5194305181505192,1,-1.0033247832552661e-07,-5.251601464806299e-08,1.006021310701044e-08,-1.4801686543108872e-09,2.8280764396981795e-09,-9.784465789794922,1.0,-5.9072522873293565e-08,8.615756286189935e-08,-6.896601689732051e-08,1.7726493378558093e+18,0.1000000536441803,0.1000000536441803,3.0,54.83127975463867,43.61082784766961,3.876866253267342,1772649337623976.0,8.952386565397319e-07,-2.4643239271426864e-07,-1.5255812406539917,1.0,1.7726493376239767e+18,55.38324737548828,100661.1640625,1013.25,1.7726493378406213e+18,0.29618173837661743,0.0017020748928189278,0.18259768187999725,1.772649337840672e+18,8192.0,0.9999998807907104,0.0,0.0,0.0,0.0,0.0,0.0,1.7726493377981217e+18
2026-03-04T19:35:38.127+01:00,1772649338.128,2.408562522759894e-06,2.8546276098495582e-06,2.432910442352295,1.5151839256288635,1,-3.4330454923292564e-08,-5.8220255283458755e-09,7.782156252744699e-09,-1.5787850193849096e-10,9.308483983616611e-10,-9.787358283996582,1.0,-6.10991861549337e-08,7.096258514138754e-08,-6.787026762822279e-08,1.772649338057153e+18,0.1000000536441803,0.1000000536441803,3.0,55.161224365234375,43.6108278476711,3.8768662532663813,1772649337840661.0,6.00520763782697e-07,-4.785649139193993e-07,-1.5197639465332031,1.0,1.7726493378406612e+18,55.61565017700195,100658.3828125,1013.25,1.7726493380541601e+18,0.30459073185920715,0.008925994858145714,0.17702646553516388,1.7726493380541737e+18,8192.0,0.9999998807907104,0.0,0.0,0.0,0.0,0.0,0.0,1.7726493379906903e+18
2026-03-04T19:35:38.328+01:00,1772649338.328,2.4372379812120926e-06,2.686216475922265e-06,2.1284847259521484,1.5118211507800436,1,-2.0115091814432162e-09,-1.4569585005119734e-07,-5.456067819764598e-10,-3.1212439299821426e-09,4.3060815330120406e-11,-9.790331840515137,1.0,-6.467010393862438e-08,6.600843960313796e-08,-6.745865732682432e-08,1.7726493382577823e+18,0.1000000461935997,0.1000000461935997,3.0,55.48542785644531,43.61082784767192,3.8768662532647893,1772649338054166.0,2.613413130347908e-07,-7.338724685723719e-07,-1.5152416229248047,1.0,1.7726493380541665e+18,55.76618194580078,100656.59375,1013.25,1.7726493382547725e+18,0.30519452691078186,0.01074256282299757,0.17280948162078857,1.7726493382547896e+18,8192.0,0.9999998807907104,0.0,0.0,0.0,0.0,0.0,0.0,1.772649338191331e+18
2026-03-04T19:35:38.533+01:00,1772649338.533,2.4119876798067708e-06,2.46266563408426e-06,1.818495750427246,1.5089445114140894,1,5.591342642219388e-07,-1.5688985399719968e-07,2.708070434565002e-09,-4.897459326969056e-09,-1.7453762879426904e-08,-9.79434871673584,1.0,-4.368046546687765e-08,5.0067665569031305e-08,-6.748523162514175e-08,1.7726493384592625e+18,0.1000000461935997,0.1000000461935997,3.0,55.789939880371094,43.61082784767215,3.8768662532626665,1772649338254779.0,-1.391160164843086e-08,-9.791342563403305e-07,-1.5118699073791504,1.0,1.7726493382547794e+18,55.96425247192383,100654.2109375,1013.25,1.7726493384592532e+18,0.3102989196777344,0.01322970911860466,0.1753399819135666,1.772649338436541e+18,8192.0,0.9999998807907104,0.0,0.0,0.0,0.0,0.0,0.0,1.7726493383933732e+18
2026-03-04T19:35:38.731+01:00,1772649338.732,2.345669372516568e-06,2.208145588156185e-06,1.517439365386963,1.5067712068563877,1,6.84732697209256e-07,-1.2324481701853074e-07,2.1516985970748692e-09,-3.1734843641828547e-09,-1.763127421838817e-08,-9.796892166137695,1.0,2.034902024661278e-08,3.6506119016621597e-08,-6.711454858532306e-08,1.7726493386604626e+18,0.1000000461935997,0.1000000461935997,3.0,56.097251892089844,43.6108278476719,3.8768662532598865,1772649338459259.0,-2.5248431256841286e-07,-1.2208057569296216e-06,-1.5089445114135742,1.0,1.7726493384592594e+18,56.186092376708984,100651.5625,1013.25,1.7726493386604321e+18,0.29057127237319946,0.020573142915964127,0.17607350647449493,1.7726493386392466e+18,8192.0,0.9999998807907104,0.0,0.0,0.0,0.0,0.0,0.0,1.7726493383933732e+18
2026-03-04T19:35:38.932+01:00,1772649338.933,2.244647930638166e-06,1.9513054212438874e-06,1.203926920890808,1.5049488544469276,1,2.8882968194920977e-07,-2.286984113197832e-07,-3.749894617044447e-09,-5.067876340802968e-09,-6.400539653839132e-09,-9.798683166503906,1.0,6.39762163245905e-08,2.24026432960045e-08,-6.693865373108565e-08,1.772649338865094e+18,0.1000000461935997,0.1000000461935997,3.0,56.36888885498047,43.61082784767135,3.876866253257037,1772649338639236.0,-4.107853897039604e-07,-1.2981537338419002e-06,-1.5069749355316162,1.0,1.7726493386392364e+18,56.77238082885742,100644.5625,1013.25,1.772649338847089e+18,0.2938901484012604,0.012256074696779251,0.17785772681236267,1.7726493388471045e+18,8192.0,0.9999998807907104,0.0,0.0,0.0,0.0,0.0,0.0,1.7726493387264998e+18
2026-03-04T19:35:39.133+01:00,1772649339.134,2.125816308762296e-06,1.7479056850788766e-06,0.8966577649116516,1.5034840106967589,1,8.85218582880043e-08,-1.4265490122511437e-08,6.980076960871884e-09,-2.2201340765803934e-10,-1.834447149740015e-09,-9.797865867614746,1.0,8.344790103365085e-08,2.8128430695772977e-09,-6.687496068025212e-08,1.772649339066785e+18,0.1000000461935997,0.1000000461935997,3.0,56.68260955810547,43.610827847670464,3.876866253253836,1772649338847094.0,-5.423388529379736e-07,-1.1406708608774352e-06,-1.5050897598266602,1.0,1.7726493388470943e+18,57.24775314331055,100638.890625,1013.25,1.772649339048762e+18,0.29940178990364075,0.018846901133656502,0.17493054270744324,1.7726493390487767e+18,8192.0,0.9999998807907104,0.0,0.0,0.0,0.0,0.0,0.0,1.7726493389318812e+18
2026-03-04T19:35:39.335+01:00,1772649339.335,2.0030011000926606e-06,1.611452603356156e-06,0.5902122855186462,1.5022964477541034,1,-1.33642004129797e-07,1.4197909514734874e-08,3.4542484428357056e-09,3.9603345602934326e-10,3.72778963253495e-09,-9.801383972167969,1.0,8.46977741275623e-08,-1.47069734168781e-09,-6.634595450805136e-08,1.7726493392675507e+18,0.1000000461935997,0.1000000461935997,3.0,56.98653793334961,43.610827847669405,3.876866253251308,1772649339048767.0,-6.000915959702979e-07,-8.565605753574346e-07,-1.5036343336105347,1.0,1.7726493390487677e+18,56.55054473876953,100647.2265625,1013.25,1.772649339252406e+18,0.2987658381462097,0.009769369848072529,0.17872697114944458,1.7726493392524214e+18,8192.0,0.9999998807907104,0.0,0.0,0.0,0.0,0.0,0.0,1.7726493391328105e+18
2026-03-04T19:35:39.535+01:00,1772649339.535,1.882007722997514e-06,1.544730480418366e-06,0.2857392430305481,1.501439571380741,1,-7.960600356682335e-08,-3.073637699912979e-08,-1.7710464206288634e-08,-7.696489001673967e-10,1.993379905584902e-09,-9.800944328308105,1.0,7.716546690517134e-08,-3.81951803518632e-09,-6.832020460478816e-08,1.772649339470015e+18,0.1000000461935997,0.1000000461935997,3.0,57.291805267333984,43.61082784766831,3.876866253249573,1772649339252411.0,-6.000114467497042e-07,-5.080516416455794e-07,-1.5023741722106934,1.0,1.7726493392524116e+18,58.07700729370117,100628.9609375,1013.25,1.772649339457942e+18,0.3014666736125946,0.01466282270848751,0.17183536291122437,1.7726493394579556e+18,8192.0,0.9999998807907104,0.0,0.0,0.0,0.0,0.0,0.0,1.7726493393302664e+18
2026-03-04T19:35:39.736+01:00,1772649339.737,1.76122978245985e-06,1.5407537148348638e-06,-0.025105377659201622,1.500674486160393,1,-5.911299183480878e-08,2.887172101395663e-08,4.99678609600096e-09,6.040249966865474e-10,1.2367948887259672e-09,-9.802692413330078,1.0,6.243138983563767e-08,-3.083920452340294e-09,-6.943339769804879e-08,1.7726493396736522e+18,0.1000000461935997,0.1000000461935997,3.0,57.60060119628906,43.61082784766721,3.876866253248693,1772649339457947.0,-5.930168072154629e-07,-1.8161971127028664e-07,-1.5015040636062622,1.0,1.7726493394579474e+18,57.83140182495117,100631.9140625,1013.25,1.7726493396615498e+18,0.3048473596572876,0.006549008656293154,0.18118764460086823,1.7726493396615624e+18,8192.0,0.9999998807907104,0.0,0.0,0.0,0.0,0.0,0.0,1.7726493395321997e+18
2026-03-04T19:35:39.941+01:00,1772649339.942,1.6458050140499836e-06,1.589980342941999e-06,-0.3292454779148102,1.5001240968705734,1,-4.544203946466041e-08,-8.289988073784116e-08,8.188018263410868e-09,-1.8101257159841566e-09,9.921476973318022e-10,-9.803387641906738,1.0,5.2427893137974024e-08,1.9806731810234623e-09,-6.875308855569529e-08,1.7726493398764557e+18,0.1000000461935997,0.1000000461935997,3.0,57.90718078613281,43.61082784766613,3.876866253248606,1772649339661554.0,-5.740731126024912e-07,1.1013644751756146e-07,-1.5007166862487793,1.0,1.7726493396615544e+18,58.17208480834961,100627.8359375,1013.25,1.7726493398644014e+18,0.3087891638278961,-0.003307393752038479,0.17233878374099731,1.7726493398644183e+18,8192.0,0.9999998807907104,0.0,0.0,0.0,0.0,0.0,0.0,1.772649339736214e+18
2026-03-04T19:35:40.139+01:00,1772649340.14,1.5403376210088027e-06,1.6711541093172855e-06,-0.5823804140090942,0.8998000621798938,1,1.8985720089403912e-06,-3.696940893860301e-06,-2.9421440217447525e-07,-4.7691091964452426e-08,-2.456207859324877e-08,-4.877357482910156,1.0,-1.6373050470974704e-07,2.1455259968661267e-07,-9.061457006964702e-08,1.7726493400781125e+18,0.1000000461935997,0.1000000461935997,3.0,58.21131896972656,43.61082784766509,3.87686625324918,1772649339864408.0,-5.69428266317118e-07,3.4571073115330364e-07,-1.5001577138900757,1.0,1.7726493398644086e+18,58.21169662475586,100627.3515625,1013.25,1.772649340069081e+18,0.3114393949508667,0.009696690365672112,0.18275851011276245,1.7726493401265802e+18,8192.0,0.9999998807907104,0.0,0.0,0.0,0.0,0.0,0.0,1.7726493401264197e+18
2026-03-04T19:35:40.344+01:00,1772649340.345,1.305765636061551e-06,1.7257757463085e-06,-0.6761300563812256,0.278116613629569,1,-1.6911938871544407e-07,-5.648761543852743e-06,-9.442182147267886e-08,-1.035631047585639e-08,3.1801972166789483e-10,-4.998589038848877,1.0,-1.0848538778418515e-07,1.3484316241374472e-07,-1.1225116480773067e-07,1.7726493403239393e+18,0.1000000461935997,0.1000000461935997,3.0,58.488285064697266,43.61082784766405,3.8768662532502685,1772649340069085.0,-6.413784490177932e-07,4.0675925561117765e-07,-0.9443298578262329,1.0,1.772649340069086e+18,58.615760803222656,100622.53125,1013.25,1.7726493403115016e+18,0.30290916562080383,0.013045059517025948,0.17988955974578857,1.772649340311418e+18,8192.0,0.9999998807907104,0.0,0.0,0.0,0.0,0.0,0.0,1.7726493403112338e+18
2026-03-04T19:35:40.547+01:00,1772649340.547,1.0009528068621876e-06,1.7021811800077558e-06,-0.546204686164856,0.667373299601732,1,3.78072181774769e-05,-3.7361838622018695e-05,4.4896356143908633e-07,-1.3020640210470447e-07,-1.3174086177514255e-07,-13.09056282043457,1.0,2.4940825937846967e-07,-2.799478693304991e-07,-7.539743052120684e-08,1.7726493405242578e+18,0.1000000461935997,0.1000000461935997,3.0,58.581260681152344,43.61082784766234,3.876866253250887,1772649340311505.0,-1.2937936162416008e-06,5.099207811554152e-08,0.23276469111442566,1.0,1.7726493403115057e+18,58.21169662475586,100627.3671875,1013.25,1.7726493405179814e+18,0.29718655347824097,0.012487252242863178,0.17713958024978638,1.772649340517913e+18,8192.0,0.9999998807907104,0.0,0.0,0.0,0.0,0.0,0.0,1.7726493403112338e+18
2026-03-04T19:35:40.747+01:00,1772649340.748,7.962137260619784e-07,1.6872318155947141e-06,-0.467980295419693,0.389180511236761,1,7.925455065560527e-06,7.528465630457504e-06,2.761934183581616e-07,3.9737479085033556e-08,-4.220682825462063e-08,-10.725226402282715,1.0,-1.568910050764316e-07,-3.445691163506126e-07,-4.879645842947866e-08,1.772649340684456e+18,0.1000000461935997,0.1000000461935997,3.0,58.54854202270508,43.610827847661135,3.876866253250926,1772649340458676.0,-1.473498514314997e-06,-1.2844841990045097e-07,0.8596633672714233,1.0,1.7726493404586762e+18,58.76893615722656,100620.7109375,1013.25,1.7726493406719803e+18,0.2969687879085541,0.014123122207820415,0.17118743062019348,1.7726493407335826e+18,8192.0,0.9999998807907104,0.0,0.0,0.0,0.0,0.0,0.0,1.7726493406505408e+18
2026-03-04T19:35:40.941+01:00,1772649340.942,7.506206429752638e-07,1.63264758157311e-06,-0.4012439250946045,0.21707704663392557,1,4.763107881444739e-06,-2.453646175126778e-07,1.2945426419719297e-07,-7.005674373949944e-10,-1.36629285663048e-08,-10.444740295410156,1.0,-2.0918815835102578e-07,-6.488902215551207e-08,-3.268169734838011e-08,1.77264934088539e+18,0.1000000461935997,0.1000000461935997,3.0,58.406551361083984,43.61082784765822,3.8768662532503657,1772649340650815.0,-9.499112820776645e-07,2.073561518045608e-07,0.4294542074203491,1.0,1.772649340650816e+18,58.36751174926758,100625.515625,1013.25,1.772649340867067e+18,0.2886029779911041,0.02476859837770462,0.18112997710704803,1.772649340867086e+18,8192.0,0.9999998807907104,0.0,0.0,0.0,0.0,0.0,0.0,1.772649340845405e+18
2026-03-04T19:35:41.143+01:00,1772649341.144,0.005159334279596806,1.379287368763471e-06,-0.4102330207824707,0.5949355105488677,1,7.1952117650653236e-06,-0.6041721701622009,5.122287660697111e-08,-0.026207562536001205,-3.120293285974185e-07,-14.33322525024414,0.9982088804244995,-1.625132739491164e-07,-0.05982508137822151,-1.07695727891155e-08,1.7726493410898435e+18,0.1000000461935997,0.1000000461935997,3.0,58.30546569824219,43.61082784765696,3.876866253249907,1772649340867073.0,9.020315872021456e-08,-6.078507794882171e-07,0.22894807159900665,1.0,1.7726493408670738e+18,58.1562385559082,100628.0234375,1013.25,1.7726493410748244e+18,0.3099442720413208,0.012499615550041199,0.14505141973495483,1.7726493410748436e+18,8192.0,0.9999998807907104,0.0,0.0,0.0,0.0,0.0,0.0,1.77264934103188e+18
2026-03-04T19:35:41.344+01:00,1772649341.345,0.055466774851083755,9.410633197148854e-07,-0.553963303565979,0.731915918357241,1,-1.3230153399490518e-06,-0.06287533789873123,-1.2858375839641667e-06,-0.002114510163664818,4.125753605421778e-08,-8.452166557312012,0.996559202671051,-4.457998059592683e-08,-0.08288444578647614,-8.818594210424635e-08,1.772649341292104e+18,0.1000000461935997,0.1000000461935997,3.0,58.30573272705078,43.610827885323275,3.8768662532468383,1772649341074833.0,0.10570674389600754,-1.9281019376649056e-06,-0.5023728013038635,1.0,1.7726493410748334e+18,58.48899841308594,100624.0546875,1013.25,1.7726493412890998e+18,0.32739564776420593,0.015219204127788544,0.11577439308166504,1.7726493412891139e+18,8192.0,0.9999998807907104,0.0,0.0,0.0,0.0,0.0,0.0,1.7726493412257329e+18
2026-03-04T19:35:41.543+01:00,1772649341.544,0.16419284045696259,4.789993113263336e-07,-0.6571577191352844,0.7923056495221215,1,-1.2189028666398372e-06,0.11275341361761093,6.538216439366806e-07,0.0002525448799133301,3.1157057378550235e-08,-9.108290672302246,0.9969754815101624,1.9004042428605317e-07,-0.0777171403169632,-1.1211127315391423e-07,1.7726493414923466e+18,0.1000000461935997,0.1000000461935997,3.0,58.461578369140625,43.61082838899409,3.8768662532408373,1772649341289106.0,0.40186765789985657,-2.40558779296407e-06,-0.6133901476860046,1.0,1.7726493412891067e+18,58.6765022277832,100621.8046875,1013.25,1.7726493414893473e+18,0.32248255610466003,0.011081240139901638,0.1294209063053131,1.772649341489362e+18,8192.0,0.9999998807907104,0.0,0.0,0.0,0.0,0.0,0.0,1.7726493412257329e+18
2026-03-04T19:35:41.747+01:00,1772649341.748,0.3271541893482208,1.7788983086575172e-07,-0.7218915224075317,0.9937033203195014,1,-7.247657549669384e-07,0.13743950426578522,7.858648700675985e-07,-0.0017619356513023376,1.9517006677460813e-08,-9.440794944763184,0.9979206919670105,1.1710135794373855e-07,-0.0644538551568985,-1.186550857568136e-08,1.772649341692847e+18,0.1000000461935997,0.1000000461935997,3.0,58.55115509033203,43.61082923477132,3.8768662532358187,1772649341468267.0,0.6577057838439941,-1.8672759551918716e-06,-0.40604162216186523,1.0,1.772649341468267e+18,58.60255813598633,100622.671875,1013.25,1.7726493416748337e+18,0.3193299174308777,0.018766608089208603,0.1318126618862152,1.772649341674852e+18,8192.0,0.9999998807907104,0.0,0.0,0.0,0.0,0.0,0.0,1.7726493415591058e+18
2026-03-04T19:35:41.945+01:00,1772649341.946,0.553061306476593,-3.7393640184291144e-08,-0.7693836688995361,1.1997283292293335,1,7.60220260076494e-08,0.12153160572052002,2.2814114686298126e-07,-0.005423739552497864,-2.9656384015197546e-09,-9.61905574798584,0.9986883997917175,3.033137829788757e-08,-0.05120093375444412,3.380026214472309e-08,1.7726493418954335e+18,0.1000000461935997,0.1000000461935997,3.0,58.61956787109375,43.610830715997494,3.8768662532318787,1772649341674842.0,0.9369747638702393,-1.2326247542659985e-06,-0.26853540539741516,1.0,1.772649341674842e+18,58.452022552490234,100624.5,1013.25,1.7726493418859515e+18,0.31737905740737915,0.016280487179756165,0.15378008782863617,1.7726493418859676e+18,8192.0,0.9999998807907104,0.0,0.0,0.0,0.0,0.0,0.0,1.7726493417558748e+18
2026-03-04T19:35:42.147+01:00,1772649342.148,0.8022915720939636,-2.0243169274181128e-07,-0.8030363321304321,1.3737838351649754,1,5.7858295576807e-07,0.09886052459478378,-1.838478738136473e-07,-0.009411062113940716,-1.602471755290935e-08,-9.699257850646973,0.9991987943649292,7.1771015797139626e-09,-0.040023379027843475,3.225066436129964e-08,1.7726493421000433e+18,0.1000000461935997,0.1000000461935997,3.0,58.66773223876953,43.61083272994047,3.8768662532291738,1772649341885957.0,1.1750248670578003,-8.913133910937177e-07,-0.19385750591754913,1.0,1.7726493418859574e+18,58.753089904785156,100620.8828125,1013.25,1.7726493420970532e+18,0.3170512020587921,0.017252178862690926,0.14775657653808594,1.7726493420970673e+18,8192.0,0.9999998807907104,0.0,0.0,0.0,0.0,0.0,0.0,1.7726493419494633e+18
2026-03-04T19:35:42.350+01:00,1772649342.35,1.1050559282302856,-3.737653173629951e-07,-0.8329572677612305,1.510623245050113,1,6.140061259429785e-07,0.07884519547224045,-1.9927263394947659e-07,-0.014219235628843307,-3.2504980929104477e-09,-9.729721069335938,0.9995118975639343,1.6354453791223023e-08,-0.031242279335856438,1.1652280029750273e-08,1.7726493423027402e+18,0.1000000461935997,0.1000000461935997,3.0,58.70078659057617,43.61083488620732,3.8768662532271816,1772649342076016.0,1.346537709236145,-8.167509122358751e-07,-0.15663151443004608,1.0,1.7726493420760164e+18,58.62632751464844,100622.390625,1013.25,1.772649342337235e+18,0.3047654926776886,0.010047845542430878,0.15475107729434967,1.7726493423371612e+18,8192.0,0.9999998807907104,0.0,0.0,0.0,0.0,0.0,0.0,1.7726493423369935e+18
2026-03-04T19:35:42.550+01:00,1772649342.551,1.3947498798370361,-5.158899512025528e-07,-0.8556380867958069,1.6164104292551715,1,-5.128421776134928e-07,0.06071934849023819,-8.704467546749584e-08,-0.015792634338140488,9.273074752513821e-09,-9.741025924682617,0.9997026920318604,5.1607759843363965e-08,-0.024385180324316025,-2.3855881714496263e-09,1.7726493425041277e+18,0.1000000461935997,0.1000000461935997,3.0,58.73103713989258,43.61083758616149,3.87686625322506,1772649342287186.0,1.4957036972045898,-8.043821253522765e-07,-0.1312137246131897,1.0,1.7726493422871867e+18,58.821754455566406,100620.0625,1013.25,1.772649342535947e+18,0.3117386996746063,0.015999648720026016,0.16098399460315704,1.772649342535877e+18,8192.0,0.9999998807907104,0.0,0.0,0.0,0.0,0.0,0.0,1.7726493425357094e+18
2026-03-04T19:35:42.750+01:00,1772649342.75,1.733994722366333,-6.431910151150078e-07,-0.8775646686553955,1.6986145713293361,1,-6.957129983220511e-08,0.046762559562921524,-7.371195209771031e-08,-0.01743129827082157,1.5789818341716e-09,-9.745597839355469,0.9998183846473694,3.353892452651053e-08,-0.019057508558034897,-9.983488702403065e-09,1.7726493427066168e+18,0.1000000461935997,0.1000000461935997,3.0,58.75655746459961,43.61084050589641,3.8768662532230835,1772649342495124.0,1.608312726020813,-7.022024988145859e-07,-0.1134171336889267,1.0,1.7726493424951247e+18,58.37807846069336,100625.375,1013.25,1.7726493427385866e+18,0.30962449312210083,0.01925906538963318,0.16646809875965118,1.7726493427384965e+18,8192.0,0.9999998807907104,0.0,0.0,0.0,0.0,0.0,0.0,1.7726493427381233e+18
2026-03-04T19:35:42.951+01:00,1772649342.951,2.08111310005188,-7.394416456918407e-07,-0.8962646126747131,1.7623624414897558,1,-1.205001183279819e-07,0.03583962470293045,-6.252308537568751e-08,-0.019275499507784843,3.207296206397814e-09,-9.747794151306152,0.9998885989189148,2.703713875007452e-08,-0.0149264857172966,-1.6969824656598576e-08,1.7726493429108124e+18,0.1000000461935997,0.1000000461935997,3.0,58.7779541015625,43.61084350022183,3.8768662532215505,1772649342697580.0,1.6925427913665771,-5.337255970516708e-07,-0.09904345870018005,1.0,1.7726493426975805e+18,58.51012420654297,100623.8046875,1013.25,1.7726493428987525e+18,0.300721675157547,0.020503778010606766,0.1729176640510559,1.7726493429421578e+18,8192.0,0.9999998807907104,0.0,0.0,0.0,0.0,0.0,0.0,1.772649342942e+18
2026-03-04T19:35:43.160+01:00,1772649343.16,2.4649064540863037,-8.168274234776618e-07,-0.9017214179039001,1.741284881873801,1,-1.2879809219157323e-05,0.5864980220794678,4.5465736775440746e-07,-0.0002853758633136749,4.0945485579868546e-07,-14.200271606445312,0.9976014494895935,5.6187360542026e-07,0.069219671189785,-1.872712829253942e-08,1.772649343111945e+18,0.1000000461935997,0.1000000461935997,3.0,58.79661560058594,43.61084662598299,3.8768662532203617,1772649342898758.0,1.7569912672042847,-4.1993763488790137e-07,-0.08623947948217392,1.0,1.7726493428987584e+18,58.78478240966797,100620.5078125,1013.25,1.7726493431093908e+18,0.2657666802406311,0.007237596902996302,0.21792256832122803,1.7726493431441254e+18,8192.0,0.9999998807907104,0.0,0.0,0.0,0.0,0.0,0.0,1.772649342942e+18
2026-03-04T19:35:43.356+01:00,1772649343.356,2.7527546882629395,-6.68205075271544e-07,-0.9359194040298462,1.3672138946205115,1,-6.37032189843012e-06,0.21738764643669128,-2.184602365673527e-08,-0.006041251122951508,1.8469623341843544e-07,-9.487135887145996,0.9941303133964539,2.3809030835764133e-07,0.10818926244974136,4.4285012990030737e-08,1.7726493433141402e+18,0.1000000461935997,0.1000000461935997,3.0,58.80543518066406,43.610848462122135,3.876866253219802,1772649343087819.0,1.780693769454956,-3.279508575815271e-07,0.08286233991384506,1.0,1.7726493430878193e+18,58.71083450317383,100621.3828125,1013.25,1.7726493433017344e+18,0.2591623067855835,0.01600329764187336,0.23987269401550293,1.7726493433017551e+18,8192.0,0.9999998807907104,0.0,0.0,0.0,0.0,0.0,0.0,1.7726493432802038e+18
2026-03-04T19:35:43.559+01:00,1772649343.56,3.00667667388916,-3.1128837463256787e-07,-0.9807822108268738,0.9155830461768117,1,-4.479416475078324e-06,0.007218672428280115,-2.9397735357150623e-09,-0.005291830748319626,1.0404369277239311e-07,-9.303622245788574,0.9930704236030579,2.703980328533362e-08,0.11752089858055115,6.854456557903177e-08,1.7726493435182454e+18,0.1000000461935997,0.1000000461935997,3.0,58.816280364990234,43.610851574072456,3.8768662532201867,1772649343280651.0,1.4120275974273682,1.1963549013671582e-06,-0.26647138595581055,1.0,1.7726493432806513e+18,58.85608673095703,100619.65625,1013.25,1.7726493435002606e+18,0.25125399231910706,0.016031567007303238,0.24449507892131805,1.772649343500277e+18,8192.0,0.9999998807907104,0.0,0.0,0.0,0.0,0.0,0.0,1.7726493434789942e+18
2026-03-04T19:35:43.759+01:00,1772649343.76,3.1415069103240967,3.570709594669097e-08,-0.9922246336936951,0.4727625020877752,1,-2.7697089990397217e-06,-0.10234907269477844,1.1815676437265665e-08,-0.00418587401509285,7.922969302853744e-08,-9.466212272644043,0.9937450289726257,-7.795743073302219e-08,0.11167287826538086,8.203540602380599e-08,1.7726493437196964e+18,0.1000000461935997,0.1000000461935997,3.0,58.878822326660156,43.610854781925866,3.8768662532253404,1772649343500267.0,0.9460184574127197,1.8204926846010494e-06,-0.13961033523082733,1.0,1.7726493435002673e+18,58.9643669128418,100618.359375,1013.25,1.772649343713686e+18,0.26680487394332886,0.014879285357892513,0.24325618147850037,1.7726493437136996e+18,8192.0,0.9999998807907104,0.0,0.0,0.0,0.0,0.0,0.0,1.7726493436713219e+18
2026-03-04T19:35:43.962+01:00,1772649343.962,3.2034850120544434,3.755188231480133e-07,-0.9792487621307373,0.12330443686085202,1,-6.636447778873844e-06,-0.1631408929824829,1.9448875843153246e-09,-0.004530970007181168,2.0052345917065395e-07,-9.728075981140137,0.9952285885810852,4.4408256627548326e-08,0.09757071733474731,7.090876152915371e-08,1.7726493439230743e+18,0.1000000461935997,0.1000000461935997,3.0,58.8923225402832,43.61085606608227,3.8768662532297133,1772649343692648.0,0.5297139883041382,1.7929817204276333e-06,-0.0013478598557412624,1.0,1.7726493436926482e+18,58.54181671142578,100623.4296875,1013.25,1.7726493439045916e+18,0.2544668912887573,0.019763648509979248,0.22338426113128662,1.7726493439046236e+18,8192.0,0.9999998807907104,0.0,0.0,0.0,0.0,0.0,0.0,1.7726493438832333e+18
2026-03-04T19:35:44.158+01:00,1772649344.159,3.178410053253174,6.600507163057046e-07,-0.9697393774986267,0.33788846490458146,1,7.153544174798299e-06,-0.060677412897348404,5.81709116431739e-07,0.0002787262201309204,-5.388861268329492e-08,-9.421225547790527,0.9959412813186646,-2.9434005455186707e-07,0.09000580757856369,2.2245650654895144e-07,1.7726493441241364e+18,0.1000000461935997,0.1000000461935997,3.0,58.88091278076172,43.61085666851878,3.876866253233923,1772649343904599.0,0.09647227823734283,1.4043573628441663e-06,0.10193874686956406,1.0,1.7726493439045993e+18,58.55501937866211,100623.2421875,1013.25,1.7726493441053612e+18,0.2564157545566559,0.010789452120661736,0.22772428393363953,1.7726493441053793e+18,8192.0,0.9999998807907104,0.0,0.0,0.0,0.0,0.0,0.0,1.772649344084082e+18
2026-03-04T19:35:44.363+01:00,1772649344.364,3.074207067489624,7.405526503134752e-07,-0.9642321467399597,0.6713406764248733,1,7.186686161730904e-07,-0.12777167558670044,-1.2664590940403286e-06,-0.0005572643131017685,-2.4489224870194448e-08,-9.847336769104004,0.9970491528511047,-1.1888993611819387e-07,0.07676610350608826,1.6580193573645374e-07,1.772649344327695e+18,0.1000000461935997,0.1000000461935997,3.0,58.869606018066406,43.61085648955737,3.87686625323752,1772649344105368.0,-0.3059976398944855,1.288351427319867e-06,-0.020312603563070297,1.0,1.7726493441053686e+18,58.731964111328125,100621.140625,1013.25,1.7726493443125568e+18,0.26799139380455017,0.0037457486614584923,0.22262722253799438,1.7726493443125747e+18,8192.0,0.9999998807907104,0.0,0.0,0.0,0.0,0.0,0.0,1.7726493442909724e+18
2026-03-04T19:35:44.566+01:00,1772649344.567,2.9089860916137695,6.139997026366473e-07,-0.953016459941864,0.9543959903529543,1,6.214283985173097e-07,-0.13561025261878967,-1.2515868093032623e-06,0.002258717082440853,-1.7586962997029332e-08,-9.94550895690918,0.9980401396751404,-8.28182606937844e-08,0.06257722526788712,2.520722652832319e-08,1.7726493445312197e+18,0.1000000461935997,0.1000000461935997,3.0,58.86507797241211,43.61085560587648,3.876866253238774,1772649344312563.0,-0.6465027928352356,-3.254830858168134e-07,0.0493253618478775,1.0,1.7726493443125637e+18,58.46522903442383,100624.328125,1013.25,1.7726493445190628e+18,0.2668813467025757,0.013803939335048199,0.20529189705848694,1.7726493445190766e+18,8192.0,0.9999998807907104,0.0,0.0,0.0,0.0,0.0,0.0,1.7726493444978258e+18
2026-03-04T19:35:44.762+01:00,1772649344.762,2.702951192855835,4.233617687532387e-07,-0.9435697197914124,1.1824610252083938,1,6.306584623416711e-07,-0.117139533162117,-5.568767278418818e-07,0.00590201560407877,-1.6724236218124133e-08,-9.961638450622559,0.9987596869468689,-1.1891273743458441e-08,0.049791306257247925,-6.712840416867039e-08,1.7726493447343355e+18,0.1000000461935997,0.1000000461935997,3.0,58.853782653808594,43.610854131653724,3.8768662532372664,1772649344519068.0,-0.9376239776611328,-8.223964869102929e-07,0.05639034882187843,1.0,1.7726493445190687e+18,58.85608673095703,100619.671875,1013.25,1.772649344725308e+18,0.28134381771087646,0.010275834240019321,0.2019527405500412,1.7726493447253256e+18,8192.0,0.9999998807907104,0.0,0.0,0.0,0.0,0.0,0.0,1.772649344703993e+18
2026-03-04T19:35:44.963+01:00,1772649344.964,2.449489116668701,2.0704401038074138e-07,-0.9376319050788879,1.3626033257799894,1,5.408860204170196e-08,-0.09474240988492966,-2.198929536234573e-07,0.00939181912690401,-1.3571224144470762e-09,-9.937077522277832,0.9992325901985168,3.846737328672134e-08,0.03916999697685242,-1.0649133486140272e-07,1.7726493449378596e+18,0.1000000461935997,0.1000000461935997,3.0,58.843650817871094,43.61085217236085,3.8768662532347777,1772649344725314.0,-1.1728910207748413,-1.094419303626637e-06,0.04008088633418083,1.0,1.7726493447253148e+18,58.81119155883789,100620.1875,1013.25,1.7726493449288384e+18,0.2851390838623047,0.0052031176164746284,0.20537453889846802,1.7726493449288591e+18,8192.0,0.9999998807907104,0.0,0.0,0.0,0.0,0.0,0.0,1.7726493449073213e+18
2026-03-04T19:35:45.165+01:00,1772649345.166,2.156830310821533,1.440747343650628e-08,-0.9358623027801514,1.5021378012400908,1,-6.86033388319629e-07,-0.07487616688013077,-3.608535692478654e-09,0.012602755799889565,1.9018976615825522e-08,-9.900235176086426,0.9995274543762207,6.385663198216207e-08,0.030739473178982735,-1.2159708262515778e-07,1.7726493451401498e+18,0.1000000461935997,0.1000000461935997,3.0,58.837669372558594,43.61084985784026,3.876866253232064,1772649344928847.0,-1.3555318117141724,-1.024332050292287e-06,0.018145032227039337,1.0,1.772649344928847e+18,58.72404098510742,100621.2265625,1013.25,1.7726493451310461e+18,0.28162333369255066,0.016587577760219574,0.2048380970954895,1.7726493451310605e+18,8192.0,0.9999998807907104,0.0,0.0,0.0,0.0,0.0,0.0,1.7726493449073213e+18
2026-03-04T19:35:45.369+01:00,1772649345.37,1.8391135931015015,-1.336768775672681e-07,-0.9375805258750916,1.610063580972053,1,-4.5396325276669813e-07,-0.05869012326002121,2.4122843456098053e-07,0.015324684791266918,1.2040320740425159e-08,-9.867165565490723,0.9997087121009827,5.044410045229597e-08,0.024136053398251534,-8.945445273411678e-08,1.7726493453416248e+18,0.1000000461935997,0.1000000461935997,3.0,58.83595275878906,43.61084726007309,3.876866253229716,1772649345131051.0,-1.4966938495635986,-8.325309295287298e-07,-0.0012160305632278323,1.0,1.7726493451310515e+18,58.63689041137695,100622.28125,1013.25,1.7726493453356209e+18,0.29028743505477905,0.01384641882032156,0.1912933737039566,1.7726493453356416e+18,8192.0,0.9999998807907104,0.0,0.0,0.0,0.0,0.0,0.0,1.7726493451754396e+18
2026-03-04T19:35:45.567+01:00,1772649345.569,1.5204732418060303,-2.3823521644317225e-07,-0.9413872957229614,1.6937111952267478,1,6.493084470093891e-07,-0.04562724009156227,1.0053577881308229e-07,0.017288440838456154,-2.2305007618683703e-08,-9.839215278625488,0.9998205304145813,1.3659247954933562e-08,0.018944978713989258,-7.247362532325496e-08,1.7726493455444667e+18,0.1000000461935997,0.1000000461935997,3.0,58.8365478515625,43.61084570424705,3.876866253228641,1772649345314346.0,-1.5972013473510742,-6.454630465668743e-07,-0.014111775904893875,1.0,1.772649345314347e+18,58.893062591552734,100619.2265625,1013.25,1.7726493455320701e+18,0.29160672426223755,0.007883092388510704,0.18934601545333862,1.7726493455320893e+18,8192.0,0.9999998807907104,0.0,0.0,0.0,0.0,0.0,0.0,1.772649345369614e+18
2026-03-04T19:35:45.771+01:00,1772649345.772,1.144187569618225,-3.3453022751928074e-07,-0.9471258521080017,1.7580758391739029,1,-1.4289610135165276e-06,-0.03532703220844269,-1.1387104592586184e-08,0.019510945305228233,2.9083889074854596e-08,-9.81988525390625,0.99988853931427,6.39689261561216e-08,0.014931957237422466,-6.846732958365465e-08,1.772649345746561e+18,0.1000000461935997,0.1000000461935997,3.0,58.841548919677734,43.61084148706305,3.8768662532265687,1772649345532077.0,-1.6891071796417236,-4.709178256234736e-07,-0.023869652301073074,1.0,1.772649345532078e+18,59.162437438964844,100615.9921875,1013.25,1.7726493457344904e+18,0.30006855726242065,0.011628201231360435,0.18321281671524048,1.7726493457345106e+18,8192.0,0.9999998807907104,0.0,0.0,0.0,0.0,0.0,0.0,1.7726493455822915e+18
2026-03-04T19:35:45.977+01:00,1772649345.977,0.8116357326507568,-3.8761731957492884e-07,-0.9525222778320312,1.8077300909047835,1,-1.861269112168884e-07,-0.027355270460247993,-2.169502444360205e-08,0.020656291395425797,5.125119884041851e-09,-9.806705474853516,0.9999301433563232,2.3949521477106828e-08,0.011820558458566666,-6.903577087769008e-08,1.7726493459489385e+18,0.1000000461935997,0.1000000461935997,3.0,58.84687423706055,43.61083833842794,3.8768662532254523,1772649345734497.0,-1.7545191049575806,-3.933091079488804e-07,-0.02819456160068512,1.0,1.772649345734498e+18,59.167720794677734,100615.9453125,1013.25,1.7726493459368776e+18,0.2933400869369507,0.007971098646521568,0.18379560112953186,1.7726493459368911e+18,8192.0,0.9999998807907104,0.0,0.0,0.0,0.0,0.0,0.0,1.7726493457846868e+18
2026-03-04T19:35:46.174+01:00,1772649346.175,0.44826433062553406,-4.182585939815908e-07,-0.9610136151313782,1.7128527862549467,1,1.9650883587019052e-06,-0.6102201342582703,-4.2128034394295355e-10,-0.006362240761518478,-8.866595635481644e-08,-11.642109870910645,0.9968428611755371,-1.0269863537359925e-07,-0.07939969748258591,-7.616790753672831e-08,1.772649346152082e+18,0.1000000461935997,0.1000000461935997,3.0,58.852699279785156,43.61083510433937,3.876866253224728,1772649345936882.0,-1.8049323558807373,-2.0841062564613821e-07,-0.02918790839612484,1.0,1.7726493459368827e+18,58.99605941772461,100617.9921875,1013.25,1.772649346139403e+18,0.3201214671134949,0.020008429884910583,0.12528644502162933,1.7726493461394207e+18,8192.0,0.9999998807907104,0.0,0.0,0.0,0.0,0.0,0.0,1.772649346117794e+18
2026-03-04T19:35:46.377+01:00,1772649346.378,0.12991087138652802,-4.974180569661257e-07,-1.0104904174804688,1.323715764408546,1,5.053190079706837e-07,-0.2122846245765686,2.10377653075966e-08,0.011189781129360199,-4.0595438122181804e-10,-9.341109275817871,0.9933438897132874,-8.27397457214829e-08,-0.11518646776676178,-6.916786787769524e-08,1.7726493463533993e+18,0.1000000461935997,0.1000000461935997,3.0,58.861507415771484,43.610831835332625,3.8768662532243527,1772649346139410.0,-1.7220704555511475,-1.346350444464406e-07,-0.1413470208644867,1.0,1.7726493461394104e+18,58.53389358520508,100623.515625,1013.25,1.7726493463503117e+18,0.32997623085975647,0.013165158219635487,0.10967576503753662,1.772649346350325e+18,8192.0,0.9999998807907104,0.0,0.0,0.0,0.0,0.0,0.0,1.7726493463286687e+18
2026-03-04T19:35:46.578+01:00,1772649346.579,-0.0844731330871582,-6.515955419672537e-07,-1.047978162765503,0.8555309305950215,1,1.190035277431889e-06,0.026112331077456474,1.006993066710038e-08,0.0046839118003845215,-1.9372521364857676e-09,-9.262125968933105,0.9923369884490967,-4.278716758676637e-08,-0.12356159836053848,-6.226485282923022e-08,1.772649346553651e+18,0.1000000461935997,0.1000000461935997,3.0,58.88764953613281,43.610830118310815,3.8768662532239415,1772649346328913.0,-1.3455272912979126,-5.965879381619743e-07,-0.26606544852256775,1.0,1.7726493463289134e+18,58.6765022277832,100621.8046875,1013.25,1.7726493465412782e+18,0.3399207890033722,0.011348120868206024,0.08626262843608856,1.772649346541305e+18,8192.0,0.9999998807907104,0.0,0.0,0.0,0.0,0.0,0.0,1.7726493465196163e+18
2026-03-04T19:35:46.773+01:00,1772649346.774,-0.2160731703042984,-8.566705105295114e-07,-1.0560024976730347,0.3999281468213616,1,5.866919536856585e-07,0.1278655081987381,-9.436852188571265e-09,0.0018835440278053284,-4.376502715786046e-09,-9.467884063720703,0.9933231472969055,3.939937798236315e-08,-0.1153651550412178,-5.3255696741416614e-08,1.7726493467522063e+18,0.1000000461935997,0.1000000461935997,3.0,58.948387145996094,43.61082706630327,3.8768662532214346,1772649346541290.0,-0.8692349195480347,-9.584892950442736e-07,-0.1153273805975914,1.0,1.7726493465412908e+18,59.096412658691406,100616.7734375,1013.25,1.7726493467452864e+18,0.3296225368976593,0.005016067065298557,0.098389632999897,1.772649346745305e+18,8192.0,0.9999998807907104,0.0,0.0,0.0,0.0,0.0,0.0,1.7726493467028564e+18
2026-03-04T19:35:46.974+01:00,1772649346.976,-0.2592616081237793,2.950409907498397e-07,-1.0374736785888672,0.13702532456569014,1,1.6225810050964355,1.4424985647201538,-0.0017668679356575012,0.005262758582830429,-0.005924935918301344,-10.859683990478516,0.995693027973175,0.009799329563975334,-0.09218721091747284,0.00098907551728189,1.7726493469522404e+18,0.1000000461935997,0.1000000461935997,3.0,58.95651626586914,43.610825963320806,3.876866253219119,1772649346724251.0,-0.4571424424648285,-1.0366732112743193e-06,0.024950925260782242,1.0,1.7726493467242514e+18,59.10433578491211,100616.6953125,1013.25,1.77264934695792e+18,0.3160710632801056,0.017392903566360474,0.12479089945554733,1.772649346957941e+18,8192.0,0.9999998807907104,0.0,0.0,0.0,0.0,0.0,0.0,1.7726493468937539e+18
2026-03-04T19:35:47.174+01:00,1772649347.174,-0.22695481777191162,0.009575899690389633,-1.0208359956741333,0.2960279180723932,1,0.19920392334461212,0.285872220993042,-0.029586156830191612,6.357021629810333e-05,-0.0005104001611471176,-10.308090209960938,0.9961725473403931,0.08683212101459503,-0.008304496295750141,0.005611137952655554,1.7726493471539538e+18,0.1000000461935997,0.1000000461935997,3.0,58.939205169677734,43.610825514769815,3.8768662532166305,1772649346936649.0,-0.011682432144880295,1.3612418115371838e-05,0.13301637768745422,1.0,1.7726493469366497e+18,59.257511138916016,100614.859375,1013.25,1.7726493471568074e+18,0.3006536066532135,0.034555405378341675,0.17092232406139374,1.7726493471568276e+18,8192.0,0.9999998807907104,0.0,0.0,0.0,0.0,0.0,0.0,1.7726493468937539e+18
2026-03-04T19:35:47.375+01:00,1772649347.375,-0.17880702018737793,0.07183856517076492,-1.0069212913513184,0.5425272349890219,1,0.10099316388368607,0.048799771815538406,-0.04742012917995453,-0.0003223852254450321,-0.0017907842993736267,-9.83053970336914,0.9970902800559998,0.07570572197437286,0.008426261134445667,0.0029282174073159695,1.7726493473543703e+18,0.1000000461935997,0.1000000461935997,3.0,58.92224884033203,43.610825773335065,3.8768663471245777,1772649347135778.0,0.23567764461040497,0.12610772252082825,0.09094192087650299,1.0,1.7726493471357788e+18,58.62896728515625,100622.359375,1013.25,1.7726493473542705e+18,0.3009110689163208,0.024828702211380005,0.17575472593307495,1.7726493473542848e+18,8192.0,0.9999998807907104,0.0,0.0,0.0,0.0,0.0,0.0,1.7726493472317348e+18
2026-03-04T19:35:47.578+01:00,1772649347.578,-0.13411696255207062,0.19824256002902985,-0.9902104735374451,0.795795180552026,1,-0.01911582238972187,-0.004989558830857277,-0.03297155350446701,-0.0002677859738469124,-0.004162214696407318,-9.904136657714844,0.9977446794509888,0.06629323214292526,0.010461695492267609,-0.0011644508922472596,1.7726493475557453e+18,0.1000000461935997,0.1000000461935997,3.0,58.906551361083984,43.61082625156507,3.8768671796421836,1772649347354276.0,0.2355530560016632,0.4828449487686157,0.07466227561235428,1.0,1.772649347354276e+18,59.13602828979492,100616.3203125,1013.25,1.7726493475583242e+18,0.30378258228302,0.03717145696282387,0.17859573662281036,1.772649347558339e+18,8192.0,0.9999998807907104,0.0,0.0,0.0,0.0,0.0,0.0,1.772649347433522e+18
2026-03-04T19:35:47.779+01:00,1772649347.779,-0.09805380553007126,0.3785189688205719,-0.9736375212669373,1.0260741325077891,1,-0.039050132036209106,-0.016402561217546463,-0.002419984433799982,-0.0001570167951285839,-0.0073417117819190025,-9.974176406860352,0.9984321594238281,0.055126868188381195,0.009267838671803474,-0.002908198395743966,1.772649347758857e+18,0.1000000461935997,0.1000000461935997,3.0,58.891563415527344,43.61082661359999,3.87686856962189,1772649347537322.0,0.20053032040596008,0.742927610874176,0.08426808565855026,1.0,1.7726493475373222e+18,58.89570236206055,100619.203125,1013.25,1.7726493477437783e+18,0.29716920852661133,0.03871045261621475,0.17497007548809052,1.7726493477648138e+18,8192.0,0.9999998807907104,0.0,0.0,0.0,0.0,0.0,0.0,1.7726493476294932e+18
2026-03-04T19:35:47.981+01:00,1772649347.982,-0.07065233588218689,0.5943418741226196,-0.9610239863395691,1.2223161122355073,1,-0.01607498712837696,-0.01640116050839424,0.015619847923517227,-0.00011054519563913345,-0.010485826060175896,-10.007527351379395,0.999011218547821,0.043772563338279724,0.007502262946218252,-0.0020799136254936457,1.772649347959604e+18,0.1000000461935997,0.1000000461935997,3.0,58.8746337890625,43.61082694799501,3.8768707934140565,1772649347743783.0,0.15947221219539642,0.9979413151741028,0.07594014704227448,1.0,1.772649347743784e+18,59.302406311035156,100614.328125,1013.25,1.7726493479534267e+18,0.29644814133644104,0.033044181764125824,0.18180117011070251,1.7726493479534559e+18,8192.0,0.9999998807907104,0.0,0.0,0.0,0.0,0.0,0.0,1.7726493478267064e+18
2026-03-04T19:35:48.180+01:00,1772649348.18,-0.04876315966248512,0.8479935526847839,-0.9530869126319885,1.3747218675962987,1,-0.04337473213672638,-0.014035612344741821,0.014560310170054436,-0.0003577254246920347,-0.012117722071707249,-9.959970474243164,0.9993842244148254,0.0345897451043129,0.005877428222447634,-0.00043468104558996856,1.7726493481627016e+18,0.1000000461935997,0.1000000461935997,3.0,58.86530303955078,43.61082712676103,3.8768725671680997,1772649347932173.0,0.12722566723823547,1.1909664869308472,0.05563301220536232,1.0,1.7726493479321733e+18,58.95380401611328,100618.5,1013.25,1.7726493481657175e+18,0.3009707033634186,0.026283662766218185,0.18207184970378876,1.7726493481657362e+18,8192.0,0.9999998807907104,0.0,0.0,0.0,0.0,0.0,0.0,1.772649348024625e+18
2026-03-04T19:35:48.381+01:00,1772649348.381,-0.030767928808927536,1.1461279392242432,-0.949214518070221,1.5006696287076013,1,-0.03545445203781128,-0.011102326214313507,0.00450414652004838,-3.7521866033785045e-05,-0.01580875925719738,-9.875787734985352,0.9995462894439697,0.029760096222162247,0.004621670115739107,0.0005051332991570234,1.7726493483594322e+18,0.1000000461935997,0.1000000461935997,3.0,58.855281829833984,43.61082734862667,3.876875673029703,1772649348144673.0,0.09789998829364777,1.3626009225845337,0.028791196644306183,1.0,1.7726493481446733e+18,58.6685791015625,100621.90625,1013.25,1.7726493483530765e+18,0.29703381657600403,0.023848215118050575,0.18099845945835114,1.772649348352984e+18,8192.0,0.9999998807907104,0.0,0.0,0.0,0.0,0.0,0.0,1.772649348219264e+18
2026-03-04T19:35:48.582+01:00,1772649348.583,-0.017351916059851646,1.4566357135772705,-0.9480820298194885,1.6043457321927679,1,-0.049198415130376816,-0.008740739896893501,-0.003310756990686059,-1.9832077668979764e-05,-0.018154114484786987,-9.87704086303711,0.9997025728225708,0.024115586653351784,0.0036046644672751427,0.0005226234206929803,1.7726493485626097e+18,0.1000000461935997,0.1000000461935997,3.0,58.85023498535156,43.6108275208893,3.876879172004633,1772649348353080.0,0.07556085288524628,1.4951059818267822,0.011244209483265877,1.0,1.7726493483530806e+18,58.771575927734375,100620.65625,1013.25,1.7726493485533642e+18,0.29332613945007324,0.017994670197367668,0.1833426058292389,1.772649348553271e+18,8192.0,0.9999998807907104,0.0,0.0,0.0,0.0,0.0,0.0,1.7726493484163832e+18
2026-03-04T19:35:48.781+01:00,1772649348.782,-0.006858547683805227,1.7879412174224854,-0.9493817687034607,1.6877776525509152,1,-0.0440731905400753,-0.0069082812406122684,-0.004476046189665794,-2.322307409485802e-05,-0.020050592720508575,-9.86080551147461,0.999811053276062,0.01923169568181038,0.0028277942910790443,9.653056622482836e-05,1.772649348761342e+18,0.1000000461935997,0.1000000461935997,3.0,58.84827423095703,43.61082765300972,3.8768829356527954,1772649348553368.0,0.05886056274175644,1.600439190864563,-0.0008304850198328495,1.0,1.772649348553369e+18,59.17828369140625,100615.8125,1013.25,1.7726493487550075e+18,0.3075478971004486,0.022963333874940872,0.17503175139427185,1.7726493487549417e+18,8192.0,0.9999998807907104,0.0,0.0,0.0,0.0,0.0,0.0,1.772649348623535e+18
2026-03-04T19:35:48.981+01:00,1772649348.982,0.0013044808292761445,2.134850025177002,-0.9525577425956726,1.751942396599047,1,-0.03487934172153473,-0.005425125360488892,-0.0016755632823333144,-2.327479887753725e-05,-0.021650655195116997,-9.837209701538086,0.9998816251754761,0.015230478718876839,0.0022048666141927242,-0.00022792560048401356,1.7726493489632783e+18,0.1000000461935997,0.1000000461935997,3.0,58.84878921508789,43.610827756659866,3.8768869926958396,1772649348755010.0,0.04572729021310806,1.6848313808441162,-0.011792606674134731,1.0,1.772649348755011e+18,58.54181671142578,100623.40625,1013.25,1.7726493489568394e+18,0.3003968894481659,0.02067357487976551,0.1768341213464737,1.77264934895677e+18,8192.0,0.9999998807907104,0.0,0.0,0.0,0.0,0.0,0.0,1.772649348826443e+18
2026-03-04T19:35:49.184+01:00,1772649349.185,0.00748384278267622,2.4769740104675293,-0.9633219838142395,1.6388172173960416,1,-0.28228306770324707,-9.814705845201388e-05,-0.000491270562633872,-4.837056621909142e-07,-0.017555227503180504,-10.818650245666504,0.9974513053894043,-0.07132149487733841,0.002036766614764929,-0.00013295956887304783,1.772649349164156e+18,0.1000000461935997,0.1000000461935997,3.0,58.851402282714844,43.610827836245996,3.8768912060840384,1772649348889832.0,0.038694098591804504,1.7300643920898438,-0.01702827401459217,1.0,1.772649348889833e+18,59.15451431274414,100616.078125,1013.25,1.77264934915461e+18,0.30420222878456116,-0.004549575503915548,0.18647603690624237,1.7726493491545416e+18,8192.0,0.9999998807907104,0.0,0.0,0.0,0.0,0.0,0.0,1.7726493491543857e+18
2026-03-04T19:35:49.383+01:00,1772649349.384,0.010602776892483234,2.6771469116210938,-0.9913827180862427,1.283815599711398,1,-0.19609707593917847,-0.0005912466440349817,-0.00020806676184292883,-1.5902332961559296e-07,-0.011644765734672546,-9.905313491821289,0.9942159056663513,-0.10738178342580795,0.0019832204561680555,-8.816835179459304e-05,1.7726493493640392e+18,0.1000000461935997,0.1000000461935997,3.0,58.85520935058594,43.61082789881326,3.8768956084794954,1772649349154613.0,0.02668803371489048,1.6415859460830688,-0.18124324083328247,1.0,1.7726493491546135e+18,58.618404388427734,100622.4921875,1013.25,1.7726493493637102e+18,0.2941150665283203,-0.027217842638492584,0.16978725790977478,1.7726493493636413e+18,8192.0,0.9999998807907104,0.0,0.0,0.0,0.0,0.0,0.0,1.7726493493634857e+18
2026-03-04T19:35:49.591+01:00,1772649349.592,0.014943234622478485,2.9866769313812256,-1.0413388013839722,0.8417704469679934,1,0.006201325915753841,-0.0016052443534135818,-8.663547487230971e-05,-5.1290844567120075e-06,-0.004913665354251862,-9.34609317779541,0.9931867718696594,-0.1165187656879425,0.0018631027778610587,-7.064214150886983e-05,1.772649349568036e+18,0.1000000461935997,0.1000000461935997,3.0,58.88884735107422,43.610827940840686,3.876899210365961,1772649349276004.0,0.021600572392344475,1.4365853071212769,-0.2273934781551361,1.0,1.7726493492760049e+18,58.9511604309082,100618.5390625,1013.25,1.7726493495556782e+18,0.29188764095306396,-0.03837831690907478,0.18028703331947327,1.7726493495768822e+18,8192.0,0.9999998807907104,0.0,0.0,0.0,0.0,0.0,0.0,1.7726493495554376e+18
2026-03-04T19:35:49.789+01:00,1772649349.79,0.016465196385979652,3.113664150238037,-1.048645257949829,0.4079765592948438,1,0.11517921835184097,-0.0024699680507183075,-3.412229852983728e-05,-6.733229383826256e-06,-0.0013564154505729675,-9.507011413574219,0.9939471483230591,-0.10984694957733154,0.0016573922475799918,-6.461922748712823e-05,1.7726493497685412e+18,0.1000000461935997,0.1000000461935997,3.0,58.93288040161133,43.6108279747603,3.876902481027056,1772649349491739.0,0.013368597254157066,0.9944002628326416,-0.14849574863910675,1.0,1.7726493494917394e+18,58.90098571777344,100619.1328125,1013.25,1.7726493497741094e+18,0.2898252606391907,-0.027979828417301178,0.17285038530826569,1.7726493497741256e+18,8192.0,0.9999998807907104,0.0,0.0,0.0,0.0,0.0,0.0,1.772649349752854e+18
2026-03-04T19:35:49.986+01:00,1772649349.987,0.016724778339266777,3.1596157550811768,-1.0325241088867188,0.11266826492012,1,0.03625788539648056,-0.012244652025401592,5.2472645620582625e-05,-4.685213207267225e-05,-0.0001579970121383667,-10.93220043182373,0.9954320788383484,-0.0954630896449089,0.0013640003744512796,-5.834481635247357e-05,1.7726493499687578e+18,0.1000000461935997,0.1000000461935997,3.0,58.949275970458984,43.61082799303331,3.8769044682132243,1772649349753087.0,0.004433515481650829,0.4322991669178009,0.027554141357541084,1.0,1.772649349753088e+18,58.9432373046875,100618.625,1013.25,1.7726493499623939e+18,0.2932785451412201,-0.02342260256409645,0.1776091605424881,1.7726493499623114e+18,8192.0,0.9999998807907104,0.0,0.0,0.0,0.0,0.0,0.0,1.7726493499621448e+18
2026-03-04T19:35:50.190+01:00,1772649350.191,0.015962455421686172,3.123910427093506,-1.0168665647506714,0.3871216092819166,1,0.12860044836997986,-0.0012411776697263122,0.00046259377268143,-3.6773562896996737e-06,0.0006490349769592285,-9.7819185256958,0.9961886405944824,-0.08722467720508575,0.0003501534229144454,8.017710206331685e-05,1.7726493501693558e+18,0.1000000461935997,0.1000000461935997,3.0,58.940834045410156,43.61082799866468,3.8769053034087007,1772649349885846.0,0.00037332880310714245,0.16191481053829193,0.09075185656547546,1.0,1.7726493498858465e+18,58.87193298339844,100619.453125,1013.25,1.7726493501600266e+18,0.29942405223846436,-0.01856427639722824,0.17138952016830444,1.7726493501599578e+18,8192.0,0.9999998807907104,0.0,0.0,0.0,0.0,0.0,0.0,1.772649350159681e+18
2026-03-04T19:35:50.392+01:00,1772649350.393,0.014847206883132458,3.017934799194336,-0.9972377419471741,0.7084421914620247,1,0.14636655151844025,-0.0007966121193021536,-0.0005265675717964768,-1.8193386495113373e-06,0.0032626651227474213,-9.943099975585938,0.9972963333129883,-0.07348540425300598,-6.226287950994447e-05,0.00011202434689039364,1.7726493503733983e+18,0.1000000461935997,0.1000000461935997,3.0,58.921714782714844,43.6108279939594,3.876905179830606,1772649350160030.0,-0.00515476381406188,-0.36123764514923096,0.0853152796626091,1.0,1.7726493501600302e+18,59.138668060302734,100616.2734375,1013.25,1.7726493503609856e+18,0.2908506393432617,-0.01783432811498642,0.18494781851768494,1.7726493503609126e+18,8192.0,0.9999998807907104,0.0,0.0,0.0,0.0,0.0,0.0,1.7726493503607508e+18
2026-03-04T19:35:50.591+01:00,1772649350.592,0.013762985356152058,2.8528895378112793,-0.9774096608161926,0.9738387422106347,1,0.13902561366558075,0.00025068188551813364,-0.0009210988646373153,1.541338860988617e-07,0.00670279748737812,-10.008665084838867,0.9982283711433411,-0.059498827904462814,-0.00018013767839875072,4.3396408727858216e-05,1.7726493505730163e+18,0.1000000461935997,0.1000000461935997,3.0,58.90489959716797,43.610827985028344,3.876904210439926,1772649350290230.0,-0.005671708844602108,-0.5766854882240295,0.10131964832544327,1.0,1.772649350290231e+18,58.74516677856445,100620.9765625,1013.25,1.7726493505606738e+18,0.29874104261398315,-0.011339784599840641,0.16854652762413025,1.7726493505605793e+18,8192.0,0.9999998807907104,0.0,0.0,0.0,0.0,0.0,0.0,1.772649350560412e+18
2026-03-04T19:35:50.792+01:00,1772649350.793,0.01282600499689579,2.6410152912139893,-0.9620490670204163,1.1884709868488121,1,0.1060788631439209,0.0002812516177073121,-0.0005261864862404764,9.678988135419786e-07,0.009719844907522202,-10.01071834564209,0.9988956451416016,-0.04698410630226135,-0.00019447000522632152,-2.9911925594205968e-05,1.7726493507739484e+18,0.1000000461935997,0.1000000461935997,3.0,58.88391876220703,43.61082797472996,3.8769023642683114,1772649350495159.0,-0.005348873324692249,-0.874355137348175,0.09714920073747635,1.0,1.7726493504951593e+18,58.776859283447266,100620.6015625,1013.25,1.772649350758596e+18,0.3012789785861969,-0.0045717074535787106,0.17211967706680298,1.7726493507796332e+18,8192.0,0.9999998807907104,0.0,0.0,0.0,0.0,0.0,0.0,1.7726493507583442e+18
2026-03-04T19:35:50.997+01:00,1772649350.998,0.01204514317214489,2.391495704650879,-0.9523591995239258,1.3600332722426942,1,0.06405798345804214,0.0001040875940816477,4.4205615267856047e-05,3.0762057576794177e-06,0.011608727276325226,-9.966071128845215,0.9993072748184204,-0.0372164212167263,-0.00018091045785695314,-5.177076309337281e-05,1.7726493509771287e+18,0.1000000461935997,0.1000000461935997,3.0,58.86555099487305,43.610827965115675,3.876899690795432,1772649350758600.0,-0.004338799975812435,-1.1752262115478516,0.06347644329071045,1.0,1.7726493507586e+18,58.96700668334961,100618.328125,1013.25,1.7726493509771192e+18,0.2983979284763336,0.0004980640951544046,0.1820555478334427,1.7726493509771374e+18,8192.0,0.9999998807907104,0.0,0.0,0.0,0.0,0.0,0.0,1.7726493509556664e+18
2026-03-04T19:35:51.192+01:00,1772649351.193,0.011366743594408035,2.0910630226135254,-0.947443425655365,1.4924907481075567,1,0.05626499652862549,0.0002223490155301988,0.0003023016906809062,5.710215191356838e-06,0.014371473342180252,-9.91211223602295,0.9995478391647339,-0.030070947483181953,-0.00015991883992683142,-3.087115692324005e-05,1.7726493511761795e+18,0.1000000461935997,0.1000000461935997,3.0,58.854209899902344,43.61082795756714,3.876896629381906,1772649350956092.0,-0.0035793441347777843,-1.3457345962524414,0.0354655459523201,1.0,1.7726493509560927e+18,58.91682815551758,100618.9375,1013.25,1.7726493511732127e+18,0.2953775227069855,0.003394786501303315,0.17723651230335236,1.772649351173238e+18,8192.0,0.9999998807907104,0.0,0.0,0.0,0.0,0.0,0.0,1.772649351151888e+18
2026-03-04T19:35:51.395+01:00,1772649351.396,0.010847216472029686,1.7749748229980469,-0.9465480446815491,1.599792440890824,1,0.05465846508741379,0.0002720633056014776,0.00022749417985323817,4.0042596083367243e-07,0.018104372546076775,-9.880230903625488,0.9997037649154663,-0.024341266602277756,-0.00013365554332267493,-2.0896654859825503e-06,1.7726493513783304e+18,0.1000000461935997,0.1000000461935997,3.0,58.84749984741211,43.61082794987606,3.8768920999647114,1772649351173221.0,-0.0028342825826257467,-1.4921828508377075,0.011808641254901886,1.0,1.772649351173221e+18,58.681785583496094,100621.75,1013.25,1.7726493513781816e+18,0.29878970980644226,0.004418826662003994,0.1782156229019165,1.7726493513781993e+18,8192.0,0.9999998807907104,0.0,0.0,0.0,0.0,0.0,0.0,1.772649351151888e+18
2026-03-04T19:35:51.596+01:00,1772649351.597,0.010447932407259941,1.446062445640564,-0.9482313990592957,1.6841786372775507,1,0.044910747557878494,0.00024878623662516475,3.805415690294467e-05,3.4221056921523996e-07,0.02009025774896145,-9.857001304626465,0.99981290102005,-0.019346648827195168,-0.00010703024599933997,1.1109080332971644e-05,1.7726493515787072e+18,0.1000000461935997,0.1000000461935997,3.0,58.846649169921875,43.610827945213856,3.8768881771569026,1772649351378187.0,-0.0022300579585134983,-1.601111650466919,-0.002909361617639661,1.0,1.7726493513781878e+18,58.726680755615234,100621.203125,1013.25,1.7726493515785746e+18,0.30340707302093506,0.009911486878991127,0.17229898273944855,1.7726493515785897e+18,8192.0,0.9999998807907104,0.0,0.0,0.0,0.0,0.0,0.0,1.7726493514873925e+18
2026-03-04T19:35:51.798+01:00,1772649351.798,0.010148595087230206,1.1181145906448364,-0.9515336155891418,1.749757042789168,1,0.0353325679898262,0.00020676029089372605,-7.65224322094582e-05,4.1914199755410664e-07,0.02168162912130356,-9.833538055419922,0.9998822808265686,-0.015347510576248169,-8.435074414592236e-05,8.212206921598408e-06,1.7726493517789673e+18,0.1000000461935997,0.1000000461935997,3.0,58.847652435302734,43.610827942575284,3.876885293291746,1772649351557056.0,-0.0017912725452333689,-1.6772617101669312,-0.012870348989963531,1.0,1.7726493515570568e+18,58.663299560546875,100621.9609375,1013.25,1.772649351784834e+18,0.29687806963920593,-0.0002826666459441185,0.18219003081321716,1.7726493517848998e+18,8192.0,0.9999998807907104,0.0,0.0,0.0,0.0,0.0,0.0,1.77264935168735e+18
2026-03-04T19:35:51.998+01:00,1772649351.999,0.009899986907839775,0.7584527134895325,-0.9560475945472717,1.800340159925696,1,0.02719121053814888,0.000161204588948749,-7.426439697155729e-05,1.593238039276912e-07,0.02300635166466236,-9.816970825195312,0.9999253153800964,-0.012223183177411556,-6.620853673666716e-05,-2.847874469580347e-08,1.7726493519787095e+18,0.1000000461935997,0.1000000461935997,3.0,58.85078048706055,43.61082793953874,3.8768810239442746,1772649351763594.0,-0.0013862332561984658,-1.7461212873458862,-0.02030964195728302,1.0,1.772649351763594e+18,58.95380401611328,100618.4765625,1013.25,1.7726493519664274e+18,0.3037414848804474,0.007293859962373972,0.1703985631465912,1.7726493519877192e+18,8192.0,0.9999998807907104,0.0,0.0,0.0,0.0,0.0,0.0,1.7726493518831363e+18
2026-03-04T19:35:52.197+01:00,1772649352.197,0.009703251533210278,0.38630416989326477,-0.9606133699417114,1.7311672045055593,1,-1.102508544921875,-2.104072154907044e-05,-3.1510109693044797e-05,-7.946528057800606e-08,0.025751188397407532,-11.579380989074707,0.9991138577461243,0.04208939149975777,-6.284214759944007e-05,-1.603974737918179e-06,1.772649352177926e+18,0.1000000461935997,0.1000000461935997,3.0,58.85511779785156,43.610827937187366,3.8768766145376605,1772649351966430.0,-0.0010764963226392865,-1.7981480360031128,-0.0236899983137846,1.0,1.7726493519664307e+18,58.99077606201172,100618.0625,1013.25,1.7726493521745812e+18,0.299629271030426,0.024272726848721504,0.17946939170360565,1.7726493521745078e+18,8192.0,0.9999998807907104,0.0,0.0,0.0,0.0,0.0,0.0,1.7726493520833892e+18
2026-03-04T19:35:52.401+01:00,1772649352.402,0.009599177166819572,0.14378882944583893,-0.9832587242126465,1.558413439800228,1,1.0811790227890015,3.312066473881714e-05,-1.6793082977528684e-05,8.69322320795618e-07,-0.011948257684707642,-9.861095428466797,0.9970903992652893,0.07622848451137543,-6.146576924948022e-05,-1.1678221198963001e-06,1.772649352327613e+18,0.1000000461935997,0.1000000461935997,3.0,58.85707092285156,43.610827935543284,3.876872622631313,1772649352104628.0,-0.0009047099738381803,-1.7873910665512085,-0.002708765212446451,1.0,1.7726493521046285e+18,58.684425354003906,100621.7265625,1013.25,1.7726493523856965e+18,0.29020485281944275,0.043153196573257446,0.17363283038139343,1.7726493523856128e+18,8192.0,0.9999998807907104,0.0,0.0,0.0,0.0,0.0,0.0,1.7726493522881403e+18
2026-03-04T19:35:52.597+01:00,1772649352.599,0.009502838365733624,-0.12609240412712097,-1.0162992477416992,1.2502078716073302,1,0.680150032043457,0.005115781910717487,0.0002627125068102032,0.00016213116759900004,-0.010090680792927742,-9.928833961486816,0.9959706664085388,0.08967916667461395,-0.0003085059579461813,4.695010375144193e-06,1.7726493525303672e+18,0.1000000461935997,0.1000000461935997,3.0,58.8804817199707,43.61082793412884,3.8768683180815255,1772649352309612.0,-0.0006266320124268532,-1.5709137916564941,-0.19758953154087067,1.0,1.7726493523096128e+18,58.9802131652832,100618.1875,1013.25,1.772649352521319e+18,0.30195918679237366,0.03981687128543854,0.17017818987369537,1.7726493525213747e+18,8192.0,0.9999998807907104,0.0,0.0,0.0,0.0,0.0,0.0,1.7726493524787272e+18
2026-03-04T19:35:52.798+01:00,1772649352.799,0.009604872204363346,-0.35422569513320923,-1.0363454818725586,0.9316857750707443,1,0.674239456653595,0.005199089180678129,2.787564881145954e-05,0.0001611489715287462,-0.015763714909553528,-10.03923511505127,0.9958745837211609,0.09073988348245621,-0.0002898513339459896,1.9911180061171763e-05,1.7726493527305684e+18,0.1000000461935997,0.1000000461935997,3.0,58.91717529296875,43.61082793316665,3.8768645975675744,1772649352521326.0,-0.00020691732061095536,-1.2591465711593628,-0.12927913665771484,1.0,1.7726493525213263e+18,58.7055549621582,100621.4609375,1013.25,1.772649352782555e+18,0.29938554763793945,0.043826084583997726,0.1661231517791748,1.7726493527824922e+18,8192.0,0.9999998807907104,0.0,0.0,0.0,0.0,0.0,0.0,1.772649352678599e+18
2026-03-04T19:35:52.998+01:00,1772649352.999,0.009968779981136322,-0.5105976462364197,-1.0411347150802612,0.5952249636675138,1,0.7806339859962463,0.0035628904588520527,-2.255806430184748e-05,9.723822586238384e-05,-0.020044175907969475,-9.732128143310547,0.9959446787834167,0.08996783941984177,-8.88209106051363e-05,3.5781788028543815e-05,1.7726493529309837e+18,0.1000000461935997,0.1000000461935997,3.0,58.93643569946289,43.61082793409822,3.8768618654109317,1772649352721546.0,0.0013319290010258555,-0.94675612449646,-0.038490843027830124,1.0,1.7726493527215462e+18,59.28656005859375,100614.5,1013.25,1.772649352927962e+18,0.30265307426452637,0.0417509526014328,0.164345383644104,1.7726493529865224e+18,8192.0,0.9999998807907104,0.0,0.0,0.0,0.0,0.0,0.0,1.772649352885371e+18
2026-03-04T19:35:53.199+01:00,1772649353.199,0.01272535789757967,-0.603798508644104,-1.0371754169464111,0.33869071180370003,1,-1.2731833457946777,-0.18426413834095,0.021313076838850975,-5.2611809223890305e-05,0.000945541076362133,-9.857534408569336,0.9979236721992493,0.043725814670324326,-0.04724155738949776,-0.002153843641281128,1.7726493531820365e+18,0.1000000461935997,0.1000000461935997,3.0,58.94115447998047,43.61082793749032,3.8768598833523638,1772649352927968.0,0.0021867710165679455,-0.6002295613288879,0.013829878531396389,1.0,1.772649352927968e+18,58.71611785888672,100621.34375,1013.25,1.7726493531816753e+18,0.31567803025245667,0.028263498097658157,0.1521800309419632,1.772649353181607e+18,8192.0,0.9999998807907104,0.0,0.0,0.0,0.0,0.0,0.0,1.7726493531813862e+18
2026-03-04T19:35:53.400+01:00,1772649353.401,0.05464516952633858,-0.6637696027755737,-1.0275919437408447,0.3287311508307794,1,-1.2592060565948486,0.06086650863289833,0.0349104143679142,-0.00040581077337265015,0.004514320287853479,-9.495121002197266,0.9978904128074646,0.03322366625070572,-0.0557759664952755,2.6072921173181385e-05,1.7726493533838912e+18,0.1000000461935997,0.1000000461935997,3.0,58.9371452331543,43.61082796497311,3.876858748695963,1772649353129653.0,0.055686645209789276,-0.33557817339897156,0.021232031285762787,1.0,1.7726493531296538e+18,59.19148635864258,100615.6640625,1013.25,1.772649353377507e+18,0.3192731738090515,0.025513773784041405,0.12934210896492004,1.772649353377439e+18,8192.0,0.9999998807907104,0.0,0.0,0.0,0.0,0.0,0.0,1.7726493533772836e+18
2026-03-04T19:35:53.604+01:00,1772649353.606,0.13103768229484558,-0.6736477017402649,-1.0151124000549316,0.5185450816808505,1,0.040785051882267,0.07594404369592667,0.017112134024500847,-0.0016902610659599304,-3.92361544072628e-05,-9.821699142456055,0.997353732585907,0.051830656826496124,-0.05082026496529579,0.004050132818520069,1.7726493535842652e+18,0.1000000461935997,0.1000000461935997,3.0,58.93007278442383,43.61082822745389,3.8768581147411,1772649353334096.0,0.24827924370765686,-0.16330495476722717,0.04953189194202423,1.0,1.7726493533340961e+18,58.72404098510742,100621.25,1013.25,1.7726493535904742e+18,0.314649760723114,0.03037792630493641,0.1368473768234253,1.7726493535904922e+18,8192.0,0.9999998807907104,0.0,0.0,0.0,0.0,0.0,0.0,1.7726493535688717e+18
2026-03-04T19:35:53.804+01:00,1772649353.805,0.2518136501312256,-0.6438165903091431,-0.9987701773643494,0.7590808627681052,1,-0.06716588139533997,0.08580077439546585,-0.008840051479637623,-0.00289757177233696,-0.0002692369744181633,-9.884858131408691,0.9972342848777771,0.060745902359485626,-0.042485568672418594,0.005367993377149105,1.772649353784249e+18,0.1000000461935997,0.1000000461935997,3.0,58.91753387451172,43.61082888257866,3.8768579007886146,1772649353569103.0,0.4990715980529785,0.035380758345127106,0.07148364186286926,1.0,1.772649353569103e+18,58.58142852783203,100622.953125,1013.25,1.7726493537717934e+18,0.315862774848938,0.032633598893880844,0.1430869847536087,1.7726493537932805e+18,8192.0,0.9999998807907104,0.0,0.0,0.0,0.0,0.0,0.0,1.7726493537715576e+18
2026-03-04T19:35:54.006+01:00,1772649354.007,0.41595226526260376,-0.5603383183479309,-0.9796108603477478,0.9998126493123521,1,-0.09850069135427475,0.07759034633636475,-0.022707350552082062,-0.004579102620482445,-0.0015385271981358528,-9.976799011230469,0.9980488419532776,0.052321963012218475,-0.03386307880282402,0.00377118238247931,1.7726493539898337e+18,0.1000000461935997,0.1000000461935997,3.0,58.90169143676758,43.61082991967825,3.876858179952826,1772649353771797.0,0.688228964805603,0.2678128778934479,0.08967608213424683,1.0,1.772649353771797e+18,59.109619140625,100616.6328125,1013.25,1.7726493539894817e+18,0.31152307987213135,0.028857111930847168,0.1610403060913086,1.772649353989498e+18,8192.0,0.9999998807907104,0.0,0.0,0.0,0.0,0.0,0.0,1.7726493539681093e+18
2026-03-04T19:35:54.207+01:00,1772649354.208,0.590621292591095,-0.4437500536441803,-0.9649326801300049,1.2043688888616013,1,-0.09643497318029404,0.0640183687210083,-0.019361743703484535,-0.006083002779632807,-0.0032754731364548206,-9.990409851074219,0.9987380504608154,0.042442984879016876,-0.02680083177983761,0.0016230896580964327,1.7726493541883238e+18,0.1000000461935997,0.1000000461935997,3.0,58.88347625732422,43.6108312687395,3.8768590521641193,1772649353968362.0,0.8399442434310913,0.4958224892616272,0.08771486580371857,1.0,1.7726493539683622e+18,58.73724365234375,100621.0859375,1013.25,1.7726493541759777e+18,0.30643415451049805,0.025750286877155304,0.15354926884174347,1.7726493541759107e+18,8192.0,0.9999998807907104,0.0,0.0,0.0,0.0,0.0,0.0,1.7726493539681093e+18
2026-03-04T19:35:54.405+01:00,1772649354.406,0.7474009394645691,-0.3252022862434387,-0.9563568830490112,1.3737738793383596,1,-0.07921553403139114,0.050940271466970444,-0.008147379383444786,-0.007484958041459322,-0.005237175617367029,-9.969353675842285,0.9992048740386963,0.03380060940980911,-0.021143676713109016,0.0002593774115666747,1.7726493543864223e+18,0.1000000461935997,0.1000000461935997,3.0,58.86717987060547,43.61083288797776,3.876860485952112,1772649354175980.0,0.9682358503341675,0.6985747218132019,0.06556837260723114,1.0,1.7726493541759808e+18,59.08320999145508,100616.9453125,1013.25,1.7726493543861174e+18,0.3140580654144287,0.03826924040913582,0.16171103715896606,1.7726493543860188e+18,8192.0,0.9999998807907104,0.0,0.0,0.0,0.0,0.0,0.0,1.7726493543127877e+18
2026-03-04T19:35:54.605+01:00,1772649354.605,0.9798102378845215,-0.13455016911029816,-0.9496702551841736,1.4841540705278342,1,-0.0677211731672287,0.04226258024573326,-0.0006038516294211149,-0.007147626951336861,-0.004586434457451105,-9.9303617477417,0.9994587302207947,0.027902614325284958,-0.01743072085082531,-7.1373549872078e-05,1.772649354547751e+18,0.1000000461935997,0.1000000461935997,3.0,58.86079025268555,43.6108337805657,3.876861382935906,1772649354313146.0,1.037299394607544,0.8094181418418884,0.047150127589702606,1.0,1.7726493543131466e+18,58.83232116699219,100619.9375,1013.25,1.7726493545923433e+18,0.308887779712677,0.01858299784362316,0.15953266620635986,1.7726493545922138e+18,8192.0,0.9999998807907104,0.0,0.0,0.0,0.0,0.0,0.0,1.7726493545112e+18
2026-03-04T19:35:54.805+01:00,1772649354.806,1.2096444368362427,0.06537580490112305,-0.947862982749939,1.5965974290778218,1,-0.05325526371598244,0.03302319720387459,0.002888826187700033,-0.008357332088053226,-0.006432999391108751,-9.89267349243164,0.9996684789657593,0.02182576060295105,-0.013660138472914696,9.984471398638561e-05,1.772649354751618e+18,0.1000000461935997,0.1000000461935997,3.0,58.85005569458008,43.6108365136903,3.8768644085314183,1772649354532487.0,1.1257684230804443,0.9524044990539551,0.02000742405653,1.0,1.7726493545324872e+18,59.262794494628906,100614.8125,1013.25,1.7726493547516104e+18,0.31014975905418396,0.022389743477106094,0.16376566886901855,1.7726493547306012e+18,8192.0,0.9999998807907104,0.0,0.0,0.0,0.0,0.0,0.0,1.7726493547092618e+18
2026-03-04T19:35:55.007+01:00,1772649355.008,1.4429045915603638,0.27594760060310364,-0.9490360021591187,1.6830089644312234,1,-0.041766874492168427,0.02579321525990963,0.0014380156062543392,-0.00936266127973795,-0.008009296841919422,-9.860894203186035,0.9997951984405518,0.01713833585381508,-0.010761640034615993,0.0003417694824747741,1.7726493549525548e+18,0.1000000461935997,0.1000000461935997,3.0,58.84796905517578,43.61083857411123,3.876866866659122,1772649354730591.0,1.187272310256958,1.0522019863128662,0.001343796611763537,1.0,1.7726493547305915e+18,58.726680755615234,100621.21875,1013.25,1.7726493549435392e+18,0.2922521233558655,0.02396281249821186,0.1626705378293991,1.772649354943554e+18,8192.0,0.9999998807907104,0.0,0.0,0.0,0.0,0.0,0.0,1.7726493549010025e+18
2026-03-04T19:35:55.212+01:00,1772649355.212,1.7002630233764648,0.5142260193824768,-0.9511054158210754,1.6570505967537268,1,-0.6860119700431824,0.7532878518104553,0.007632604334503412,0.014666637405753136,0.013213484548032284,-11.327232360839844,0.9987565279006958,-0.03166938200592995,0.038490887731313705,0.0010163448750972748,1.7726493551534838e+18,0.1000000461935997,0.1000000461935997,3.0,58.84919738769531,43.61084089948132,3.876869753417543,1772649354943544.0,1.2381423711776733,1.134914755821228,-0.012198857963085175,1.0,1.7726493549435448e+18,58.914188385009766,100618.96875,1013.25,1.7726493551474035e+18,0.2934814393520355,0.005922733806073666,0.20048561692237854,1.7726493551474227e+18,8192.0,0.9999998807907104,0.0,0.0,0.0,0.0,0.0,0.0,1.7726493551048776e+18
2026-03-04T19:35:55.414+01:00,1772649355.415,1.928558111190796,0.7300595641136169,-0.9838749766349792,1.3882278278123215,1,-0.5966232419013977,0.4462973177433014,0.006654977798461914,-0.0023250970989465714,-0.0007670512422919273,-9.782179832458496,0.9960513710975647,-0.05481326952576637,0.06981555372476578,0.0017020616214722395,1.772649355354769e+18,0.1000000461935997,0.1000000461935997,3.0,58.85137176513672,43.61084318374501,3.876872665422676,1772649355147411.0,1.2138442993164062,1.1353371143341064,-0.0633540153503418,1.0,1.772649355147412e+18,59.29184341430664,100614.4453125,1013.25,1.7726493553538012e+18,0.2718360722064972,-0.006390102207660675,0.22149410843849182,1.7726493553538207e+18,8192.0,0.9999998807907104,0.0,0.0,0.0,0.0,0.0,0.0,1.772649355311259e+18
2026-03-04T19:35:55.611+01:00,1772649355.612,2.104912042617798,0.9075397849082947,-1.0168217420578003,1.0311834518609544,1,-0.32133886218070984,0.09990926086902618,0.004816957283765078,-0.00023325160145759583,0.005653789266943932,-9.963129043579102,0.9940706491470337,-0.06432484090328217,0.08763908594846725,0.002298876876011491,1.7726493555575045e+18,0.1000000461935997,0.1000000461935997,3.0,58.88089370727539,43.61084506747617,3.8768751139386306,1772649355332816.0,1.0168352127075195,0.9756473302841187,-0.2044692486524582,1.0,1.7726493553328164e+18,58.65273666381836,100622.0859375,1013.25,1.7726493555419978e+18,0.2603214383125305,-0.01593613810837269,0.22196587920188904,1.7726493555420132e+18,8192.0,0.9999998807907104,0.0,0.0,0.0,0.0,0.0,0.0,1.7726493554996004e+18
2026-03-04T19:35:55.809+01:00,1772649355.81,2.2105486392974854,1.033456563949585,-1.0353341102600098,0.599205597931381,1,-0.12014767527580261,-0.0613243393599987,0.0020263968035578728,-0.0011402219533920288,-0.0009390302002429962,-9.513564109802246,0.9929215312004089,-0.0793805941939354,0.0882609635591507,0.003955821041017771,1.772649355759088e+18,0.1000000461935997,0.1000000461935997,3.0,58.912879943847656,43.61084657621506,3.8768771758229796,1772649355520961.0,0.7544397115707397,0.798123300075531,-0.12352456152439117,1.0,1.7726493555209613e+18,59.257511138916016,100614.8671875,1013.25,1.7726493557405002e+18,0.2582676410675049,-0.02059595100581646,0.22203195095062256,1.772649355740516e+18,8192.0,0.9999998807907104,0.0,0.0,0.0,0.0,0.0,0.0,1.7726493554996004e+18
2026-03-04T19:35:56.010+01:00,1772649356.01,2.2512035369873047,1.1032650470733643,-1.0319503545761108,0.18494271132477244,1,-0.011180517263710499,-2.2597217559814453,0.0019248750759288669,-0.0030778497457504272,-0.00016061216592788696,-10.712034225463867,0.9944666028022766,-0.08191221207380295,0.06548339128494263,0.006206505000591278,1.7726493559612e+18,0.1000000461935997,0.1000000461935997,3.0,58.93492889404297,43.61084770503799,3.8768789829291017,1772649355740505.0,0.3807445466518402,0.513069748878479,-0.04543214663863182,1.0,1.7726493557405059e+18,58.61048126220703,100622.59375,1013.25,1.772649355945803e+18,0.26968133449554443,-0.021791458129882812,0.21297624707221985,1.772649355945823e+18,8192.0,0.9999998807907104,0.0,0.0,0.0,0.0,0.0,0.0,1.7726493558219356e+18
2026-03-04T19:35:56.210+01:00,1772649356.21,2.253361940383911,1.107883334159851,-1.0168365240097046,0.2023911660864526,1,0.09474807977676392,-1.4460718631744385,-0.08234021812677383,-0.03836177662014961,-0.0023125801235437393,-11.66470718383789,0.9972987174987793,-0.07283907383680344,-0.0008511636406183243,0.009439987130463123,1.7726493561627948e+18,0.1000000461935997,0.1000000461935997,3.0,58.93397903442383,43.61084809188715,3.8768798411031034,1772649355924773.0,0.08335386216640472,0.22969119250774384,0.05840831995010376,1.0,1.7726493559247729e+18,59.01190185546875,100617.796875,1013.25,1.7726493561447813e+18,0.29825443029403687,-0.024115558713674545,0.1768701672554016,1.7726493561447951e+18,8192.0,0.9999998807907104,0.0,0.0,0.0,0.0,0.0,0.0,1.7726493560285606e+18
2026-03-04T19:35:56.411+01:00,1772649356.412,2.274264097213745,1.0539343357086182,-1.0062144994735718,0.4667173063413835,1,0.12399862706661224,-0.03487168624997139,-0.11005239188671112,-0.0012636054307222366,-0.002209700644016266,-9.716326713562012,0.9964852929115295,-0.05893382057547569,-0.05938483402132988,0.004165232181549072,1.772649356366045e+18,0.1000000461935997,0.1000000461935997,3.0,58.919189453125,43.61084811988867,3.8768799967823795,1772649356144787.0,0.06928331404924393,-0.10399530827999115,0.1571236252784729,1.0,1.7726493561447872e+18,59.14659118652344,100616.1796875,1013.25,1.772649356366035e+18,0.32112258672714233,-0.002422790043056011,0.14805234968662262,1.7726493563450414e+18,8192.0,0.9999998807907104,0.0,0.0,0.0,0.0,0.0,0.0,1.7726493562314788e+18
2026-03-04T19:35:56.613+01:00,1772649356.613,2.3407938480377197,0.9460213780403137,-0.9893335700035095,0.7727739601691456,1,0.10456515103578568,0.09358737617731094,-0.06830677390098572,0.0011084526777267456,1.7242971807718277e-05,-9.91179084777832,0.9973463416099548,-0.046534743160009384,-0.05574789270758629,-0.005192522890865803,1.7726493565703706e+18,0.1000000461935997,0.1000000461935997,3.0,58.90703582763672,43.61084829667861,3.8768793667235624,1772649356345029.0,0.1845618337392807,-0.3882327973842621,0.05996319651603699,1.0,1.7726493563450296e+18,58.713478088378906,100621.375,1013.25,1.772649356555217e+18,0.3201804459095001,-0.0030912687070667744,0.13985121250152588,1.7726493565552333e+18,8192.0,0.9999998807907104,0.0,0.0,0.0,0.0,0.0,0.0,1.7726493564307308e+18
2026-03-04T19:35:56.817+01:00,1772649356.818,2.4507768154144287,0.8026246428489685,-0.9720277786254883,1.0302236591492753,1,0.0846984013915062,0.10019410401582718,0.006288704462349415,-0.00040932372212409973,0.002300651278346777,-9.98061752319336,0.9982321262359619,-0.036833085119724274,-0.0459367111325264,-0.008113804273307323,1.7726493567717942e+18,0.1000000461935997,0.1000000461935997,3.0,58.890445709228516,43.61084887109017,3.876878059524292,1772649356555223.0,0.42741915583610535,-0.6120204925537109,0.08855324983596802,1.0,1.7726493565552236e+18,58.726680755615234,100621.2109375,1013.25,1.7726493567597683e+18,0.31463515758514404,0.012245874851942062,0.1437239795923233,1.7726493567597832e+18,8192.0,0.9999998807907104,0.0,0.0,0.0,0.0,0.0,0.0,1.7726493566318612e+18
2026-03-04T19:35:57.016+01:00,1772649357.017,2.5898547172546387,0.6383232474327087,-0.9591392874717712,1.238073182595288,1,0.06942363828420639,0.08605071157217026,0.044145312160253525,-0.002069685608148575,0.0041101244278252125,-9.981843948364258,0.9988890290260315,-0.029286129400134087,-0.036564696580171585,-0.005107647739350796,1.7726493569721874e+18,0.1000000461935997,0.1000000461935997,3.0,58.872833251953125,43.61084985362949,3.8768762837139565,1772649356759773.0,0.6383658647537231,-0.7870907783508301,0.07901459187269211,1.0,1.7726493567597734e+18,59.109619140625,100616.6328125,1013.25,1.772649356966154e+18,0.31158125400543213,0.0030767759308218956,0.15985019505023956,1.7726493569661711e+18,8192.0,0.9999998807907104,0.0,0.0,0.0,0.0,0.0,0.0,1.7726493568292362e+18
2026-03-04T19:35:57.218+01:00,1772649357.218,2.7709007263183594,0.4359229803085327,-0.9504712224006653,1.405856545098933,1,0.057198453694581985,0.06992427259683609,0.03505123406648636,-0.003942425362765789,0.006009323988109827,-9.947550773620605,0.9993204474449158,-0.02316587045788765,-0.028660381212830544,-0.0007718419074080884,1.7726493571759951e+18,0.1000000461935997,0.1000000461935997,3.0,58.85890197753906,43.610851200771805,3.8768740919898446,1772649356966160.0,0.8108245134353638,-0.9267533421516418,0.0542181022465229,1.0,1.7726493569661606e+18,58.869293212890625,100619.5,1013.25,1.7726493571759862e+18,0.3012363910675049,0.005646770820021629,0.15806472301483154,1.7726493571549532e+18,8192.0,0.9999998807907104,0.0,0.0,0.0,0.0,0.0,0.0,1.772649357022271e+18
2026-03-04T19:35:57.419+01:00,1772649357.419,2.9828341007232666,0.20713019371032715,-0.9468074440956116,1.5369573126750908,1,0.045724693685770035,0.05567614361643791,0.007494919002056122,-0.005566647741943598,0.0076219793409109116,-9.90778923034668,0.9995821118354797,-0.018206819891929626,-0.022408807650208473,0.0013933355221524835,1.772649357379405e+18,0.1000000461935997,0.1000000461935997,3.0,58.850921630859375,43.6108526854838,3.8768718062954033,1772649357154943.0,0.9362644553184509,-1.0277925729751587,0.03002680279314518,1.0,1.7726493571549435e+18,58.57878875732422,100622.984375,1013.25,1.772649357364359e+18,0.30779337882995605,-0.0011878972873091698,0.15357686579227448,1.7726493573643745e+18,8192.0,0.9999998807907104,0.0,0.0,0.0,0.0,0.0,0.0,1.7726493572199245e+18
2026-03-04T19:35:57.614+01:00,1772649357.616,3.191838026046753,-0.013653074391186237,-0.9470502138137817,1.637397252143741,1,0.0348389558494091,0.04338908568024635,-0.009971951134502888,-0.007147918920964003,0.009050789289176464,-9.871541976928711,0.9997433423995972,-0.014261363074183464,-0.017565615475177765,0.0011472224723547697,1.7726493575799555e+18,0.1000000461935997,0.1000000461935997,3.0,58.84700393676758,43.610854553506464,3.876869025911074,1772649357364364.0,1.045102834701538,-1.1153720617294312,0.007454932201653719,1.0,1.7726493573643648e+18,58.62632751464844,100622.3984375,1013.25,1.7726493576060234e+18,0.316607266664505,0.0013283155858516693,0.1650265008211136,1.7726493576059446e+18,8192.0,0.9999998807907104,0.0,0.0,0.0,0.0,0.0,0.0,1.772649357605722e+18
2026-03-04T19:35:57.819+01:00,1772649357.82,3.4361162185668945,-0.26792803406715393,-0.9499258995056152,1.7148390139636258,1,0.026513440534472466,0.03315027058124542,-0.010185175575315952,-0.00832474883645773,0.01001955009996891,-9.845427513122559,0.9998427033424377,-0.011184288188815117,-0.013765334151685238,2.446733196848072e-05,1.7726493577817088e+18,0.1000000461935997,0.1000000461935997,3.0,58.84714126586914,43.61085657559836,3.8768660841078617,1772649357570851.0,1.1277024745941162,-1.1816802024841309,-0.0084633007645607,1.0,1.7726493575708516e+18,58.565582275390625,100623.140625,1013.25,1.772649357772697e+18,0.31130945682525635,0.012617173604667187,0.17588362097740173,1.7726493577727145e+18,8192.0,0.9999998807907104,0.0,0.0,0.0,0.0,0.0,0.0,1.772649357605722e+18
2026-03-04T19:35:58.018+01:00,1772649358.02,3.663583278656006,-0.502275824546814,-0.9538301825523376,1.7751379950466226,1,0.02054280787706375,0.025839941576123238,-0.0027578319422900677,-0.009380043484270573,0.010885754600167274,-9.822436332702637,0.9999023675918579,-0.008815900422632694,-0.010823306627571583,-0.0006499046576209366,1.772649357983846e+18,0.1000000461935997,0.1000000461935997,3.0,58.849857330322266,43.610858677885716,3.8768630715903445,1772649357772704.0,1.1893525123596191,-1.2310312986373901,-0.01800478622317314,1.0,1.7726493577727045e+18,58.71083450317383,100621.3828125,1013.25,1.7726493579778266e+18,0.2928310036659241,-0.0006662001833319664,0.17304737865924835,1.7726493579778445e+18,8192.0,0.9999998807907104,0.0,0.0,0.0,0.0,0.0,0.0,1.7726493578230497e+18
2026-03-04T19:35:58.220+01:00,1772649358.221,3.9131834506988525,-0.7574207186698914,-0.9611501097679138,1.6757959698880287,1,0.4195179045200348,0.4892676770687103,-0.008001809939742088,0.0066359033808112144,-0.00310501828789711,-11.493989944458008,0.9970170855522156,0.057522423565387726,0.05145072937011719,-0.0009741901885718107,1.7726493581858665e+18,0.1000000461935997,0.1000000461935997,3.0,58.854129791259766,43.610860921611696,3.876859890145099,1772649357977833.0,1.237923502922058,-1.2698819637298584,-0.023031167685985565,1.0,1.7726493579778337e+18,58.83232116699219,100619.953125,1013.25,1.7726493581798246e+18,0.28338947892189026,0.03802221640944481,0.19840008020401,1.77264935817984e+18,8192.0,0.9999998807907104,0.0,0.0,0.0,0.0,0.0,0.0,1.7726493580233252e+18
2026-03-04T19:35:58.421+01:00,1772649358.422,4.1275529861450195,-0.9723953604698181,-1.008660078048706,1.2786580404452004,1,0.08515612781047821,0.1430763304233551,-0.004418738652020693,-0.0014331936836242676,0.0033108629286289215,-9.455390930175781,0.9932428598403931,0.08352433890104294,0.08056692779064178,-0.0011548502370715141,1.7726493583877668e+18,0.1000000461935997,0.1000000461935997,3.0,58.862510681152344,43.61086316418095,3.876856736686664,1772649358179830.0,1.1785149574279785,-1.1950864791870117,-0.1534251719713211,1.0,1.7726493581798308e+18,58.64745330810547,100622.1640625,1013.25,1.7726493583817418e+18,0.2630029022693634,0.04581126198172569,0.22228974103927612,1.7726493583817587e+18,8192.0,0.9999998807907104,0.0,0.0,0.0,0.0,0.0,0.0,1.7726493582279606e+18
2026-03-04T19:35:58.623+01:00,1772649358.624,4.289061069488525,-1.1308714151382446,-1.0477840900421143,0.8129348941227874,1,-0.029011934995651245,-0.011584772728383541,-0.0018984390189871192,-0.0025052279233932495,0.00301949679851532,-9.289742469787598,0.9926595091819763,0.08515369147062302,0.08587588369846344,-0.0011399246286600828,1.772649358589501e+18,0.1000000461935997,0.1000000461935997,3.0,58.905582427978516,43.6108648953264,3.8768543471858603,1772649358359931.0,0.9346082210540771,-0.9253666996955872,-0.2615452706813812,1.0,1.7726493583599316e+18,59.46086502075195,100612.4296875,1013.25,1.7726493585775058e+18,0.26451602578163147,0.0486496165394783,0.22087718546390533,1.7726493585775247e+18,8192.0,0.9999998807907104,0.0,0.0,0.0,0.0,0.0,0.0,1.772649358430923e+18
2026-03-04T19:35:58.828+01:00,1772649358.828,4.3727827072143555,-1.2118970155715942,-1.053252100944519,0.36376341135104034,1,-0.09171386063098907,-0.08951257169246674,-0.000847524672280997,-0.0027017742395401,0.002751879394054413,-9.500139236450195,0.9936661124229431,0.0787111446261406,0.08019313216209412,-0.0012004389427602291,1.772649358792925e+18,0.1000000461935997,0.1000000461935997,3.0,58.946937561035156,43.61086640271961,3.876852309876769,1772649358577512.0,0.5974608063697815,-0.5819730162620544,-0.10544461756944656,1.0,1.7726493585775127e+18,58.63689041137695,100622.2890625,1013.25,1.7726493587868836e+18,0.2690029740333557,0.045643400400877,0.21204453706741333,1.7726493587868982e+18,8192.0,0.9999998807907104,0.0,0.0,0.0,0.0,0.0,0.0,1.7726493587445947e+18
2026-03-04T19:35:59.024+01:00,1772649359.025,4.4001665115356445,-1.237201452255249,-1.0342791080474854,0.11086863134628797,1,-0.02564810961484909,-0.009745188988745213,-0.007452137768268585,-0.0001378096640110016,0.00047579407691955566,-10.454931259155273,0.9950259923934937,0.0698353573679924,0.07102575898170471,-0.0013482996728271246,1.7726493589965036e+18,0.1000000461935997,0.1000000461935997,3.0,58.95375061035156,43.61086717251674,3.8768512837122597,1772649358765864.0,0.30206865072250366,-0.2896808385848999,0.031862691044807434,1.0,1.772649358765865e+18,58.74252700805664,100621.03125,1013.25,1.77264935897833e+18,0.28468647599220276,0.04203353449702263,0.210955411195755,1.7726493589783483e+18,8192.0,0.9999998807907104,0.0,0.0,0.0,0.0,0.0,0.0,1.772649358956484e+18
2026-03-04T19:35:59.224+01:00,1772649359.225,4.364513397216797,-1.2006231546401978,-1.0166043043136597,0.45417795688297824,1,-0.10331815481185913,-0.10660991817712784,-0.021089524030685425,-0.0019339323043823242,0.001813308335840702,-9.816454887390137,0.9960846900939941,0.06195896863937378,0.06298059970140457,-0.00313791842199862,1.7726493591998564e+18,0.1000000461935997,0.1000000461935997,3.0,58.93626403808594,43.61086745486209,3.876850921051632,1772649358978340.0,-0.012175044976174831,0.01937393844127655,0.10338819772005081,1.0,1.77264935897834e+18,58.95380401611328,100618.4765625,1013.25,1.7726493591908416e+18,0.27674323320388794,0.0401005782186985,0.2130192518234253,1.7726493591908603e+18,8192.0,0.9999998807907104,0.0,0.0,0.0,0.0,0.0,0.0,1.7726493591485222e+18
2026-03-04T19:35:59.428+01:00,1772649359.428,4.278298377990723,-1.1140623092651367,-0.9944357872009277,0.7780090014900356,1,-0.10764193534851074,-0.11100517958402634,-0.004439128562808037,-0.0005337949842214584,0.0003595794551074505,-9.974141120910645,0.9973582029342651,0.05083286389708519,0.051685869693756104,-0.004604981280863285,1.7726493594041203e+18,0.1000000461935997,0.1000000461935997,3.0,58.91756820678711,43.610867153800676,3.876851348228706,1772649359190849.0,-0.30057787895202637,0.3033294677734375,0.10033044964075089,1.0,1.772649359190849e+18,58.850807189941406,100619.734375,1013.25,1.772649359392095e+18,0.2828122079372406,0.03533976152539253,0.20045141875743866,1.772649359392109e+18,8192.0,0.9999998807907104,0.0,0.0,0.0,0.0,0.0,0.0,1.7726493593498322e+18
2026-03-04T19:35:59.629+01:00,1772649359.63,4.152839183807373,-0.9885654449462891,-0.9742586016654968,1.037745043982574,1,-0.09180005639791489,-0.09518395364284515,0.014588641934096813,0.0007883943617343903,-0.0010620588436722755,-10.016900062561035,0.9983081817626953,0.04074488952755928,0.0412859283387661,-0.004015024285763502,1.7726493596053865e+18,0.1000000461935997,0.1000000461935997,3.0,58.89787673950195,43.610866495447326,3.8768522585126797,1772649359371113.0,-0.5097784996032715,0.5108781456947327,0.11226216703653336,1.0,1.7726493593711137e+18,58.65009307861328,100622.1328125,1013.25,1.7726493595903872e+18,0.28324049711227417,0.03298274055123329,0.20344889163970947,1.7726493595904044e+18,8192.0,0.9999998807907104,0.0,0.0,0.0,0.0,0.0,0.0,1.7726493595481206e+18
2026-03-04T19:35:59.829+01:00,1772649359.83,4.007868766784668,-0.8437334299087524,-0.9602509140968323,1.2444269101943717,1,-0.07546032220125198,-0.07729368656873703,0.01930459402501583,0.0050151837058365345,-0.0053406679071486,-10.00053596496582,0.9989389777183533,0.03242452070116997,0.03263244405388832,-0.002180309733375907,1.772649359805692e+18,0.1000000461935997,0.1000000461935997,3.0,58.87712478637695,43.610865417052416,3.8768537436407153,1772649359569386.0,-0.7011519074440002,0.7008739709854126,0.09412979334592819,1.0,1.7726493595693862e+18,58.83760070800781,100619.875,1013.25,1.7726493597875348e+18,0.2853297293186188,0.03586234524846077,0.2014622837305069,1.7726493597875507e+18,8192.0,0.9999998807907104,0.0,0.0,0.0,0.0,0.0,0.0,1.7726493597449585e+18
2026-03-04T19:36:00.038+01:00,1772649360.038,3.8121843338012695,-0.6482992172241211,-0.9502935409545898,1.4089966133497558,1,-0.06063303351402283,-0.061364106833934784,0.011845497414469719,0.006353382021188736,-0.006856911815702915,-9.960094451904297,0.9993435144424438,0.025605930015444756,0.025624388828873634,-0.0005412449245341122,1.772649360007696e+18,0.1000000461935997,0.1000000461935997,3.0,58.85997009277344,43.610863873685645,3.87685586582867,1772649359787540.0,-0.8676287531852722,0.8665808439254761,0.06154138967394829,1.0,1.7726493597875402e+18,58.44938278198242,100624.515625,1013.25,1.7726493600074383e+18,0.28794166445732117,0.02437068708240986,0.19142214953899384,1.772649360007458e+18,8192.0,0.9999998807907104,0.0,0.0,0.0,0.0,0.0,0.0,1.7726493598592458e+18
2026-03-04T19:36:00.237+01:00,1772649360.237,3.585036277770996,-0.4214376211166382,-0.9460954070091248,1.5385200894273494,1,-0.0479816310107708,-0.048220738768577576,0.0022324728779494762,0.00635330006480217,-0.007003769278526306,-9.914527893066406,0.9995962977409363,0.02011590451002121,0.020065799355506897,0.00014723616186529398,1.7726493602110152e+18,0.1000000461935997,0.1000000461935997,3.0,58.84991455078125,43.61086202515218,3.8768584066533567,1772649360007446.0,-0.9965997338294983,0.9953047633171082,0.030083106830716133,1.0,1.7726493600074468e+18,58.932674407958984,100618.734375,1013.25,1.772649360207979e+18,0.28701791167259216,0.011973019689321518,0.19137254357337952,1.772649360207996e+18,8192.0,0.9999998807907104,0.0,0.0,0.0,0.0,0.0,0.0,1.7726493600645865e+18
2026-03-04T19:36:00.439+01:00,1772649360.44,3.3645002841949463,-0.20115508139133453,-0.9462413787841797,1.6386186333598967,1,-0.03772001713514328,-0.03789249435067177,-0.002566759940236807,0.007799733895808458,-0.008531767874956131,-9.875621795654297,0.999751091003418,0.015804670751094818,0.015747183933854103,7.458070467691869e-05,1.7726493604130294e+18,0.1000000461935997,0.1000000461935997,3.0,58.846397399902344,43.61086034862529,3.876860711093161,1772649360186968.0,-1.0790005922317505,1.077683448791504,0.00959121435880661,1.0,1.772649360186969e+18,58.90626525878906,100619.046875,1013.25,1.7726493604010186e+18,0.29132363200187683,0.015395385213196278,0.18230396509170532,1.7726493604010368e+18,8192.0,0.9999998807907104,0.0,0.0,0.0,0.0,0.0,0.0,1.7726493602612355e+18
2026-03-04T19:36:00.632+01:00,1772649360.632,3.145934581756592,0.01718408800661564,-0.9486419558525085,1.7154554684433576,1,-0.029523111879825592,-0.029633909463882446,-0.0021983301267027855,0.0095988092944026,-0.010377302765846252,-9.845381736755371,0.9998455047607422,0.012455861084163189,0.01240130327641964,-0.00019702280405908823,1.7726493606131418e+18,0.1000000461935997,0.1000000461935997,3.0,58.84614181518555,43.61085840992424,3.8768633761721527,1772649360380053.0,-1.1490893363952637,1.147823452949524,-0.006427319720387459,1.0,1.7726493603800532e+18,58.77421951293945,100620.6328125,1013.25,1.7726493605979738e+18,0.2950593829154968,0.018282966688275337,0.1828698217868805,1.7726493605979886e+18,8192.0,0.9999998807907104,0.0,0.0,0.0,0.0,0.0,0.0,1.7726493604607245e+18
2026-03-04T19:36:00.836+01:00,1772649360.837,2.8769185543060303,0.2859496474266052,-0.9531305432319641,1.775791042378432,1,-0.022950971499085426,-0.023031093180179596,6.818537804065272e-05,0.009748661890625954,-0.01057735737413168,-9.825514793395996,0.9999043345451355,0.009806431829929352,0.009754295460879803,-0.0003063972690142691,1.7726493608160474e+18,0.1000000461935997,0.1000000461935997,3.0,58.848838806152344,43.61085609715897,3.876866555859899,1772649360597980.0,-1.2099357843399048,1.208748698234558,-0.017605628818273544,1.0,1.7726493605979804e+18,58.681785583496094,100621.75,1013.25,1.772649360801075e+18,0.2922065854072571,0.012714704498648643,0.18445535004138947,1.7726493608010957e+18,8192.0,0.9999998807907104,0.0,0.0,0.0,0.0,0.0,0.0,1.7726493606590935e+18
2026-03-04T19:36:01.036+01:00,1772649361.037,2.618543863296509,0.5441032648086548,-0.9580577611923218,1.8215485460521865,1,-1.0236842632293701,-0.8850269317626953,0.0009917039424180984,-0.002329542301595211,0.003593566594645381,-8.93010139465332,0.9999816417694092,0.004014922305941582,0.004536726512014866,-0.00021202351490501314,1.7726493610183014e+18,0.1000000461935997,0.1000000461935997,3.0,58.8530158996582,43.6108538422635,3.876869656317552,1772649360801082.0,-1.2533764839172363,1.2522584199905396,-0.023017417639493942,1.0,1.7726493608010826e+18,59.11225891113281,100616.59375,1013.25,1.772649361006275e+18,0.2970164716243744,0.02141491137444973,0.18549291789531708,1.772649361006291e+18,8192.0,0.9999998807907104,0.0,0.0,0.0,0.0,0.0,0.0,1.772649360963912e+18
2026-03-04T19:36:01.237+01:00,1772649361.237,2.3918938636779785,0.7699204683303833,-0.9702527523040771,1.4530623233631383,1,-0.011511738412082195,-0.122738316655159,-0.01570691540837288,0.006764117628335953,-0.0073206499218940735,-10.091751098632812,0.994192361831665,-0.07955310493707657,-0.07245509326457977,-0.001781872590072453,1.7726493612192545e+18,0.1000000461935997,0.1000000461935997,3.0,58.85801315307617,43.61085148767285,3.876872894103428,1772649361006281.0,-1.2872198820114136,1.2861542701721191,-0.022844655439257622,1.0,1.7726493610062812e+18,58.681785583496094,100621.75,1013.25,1.7726493612067077e+18,0.31957316398620605,-0.016976067796349525,0.12993568181991577,1.7726493612067254e+18,8192.0,0.9999998807907104,0.0,0.0,0.0,0.0,0.0,0.0,1.7726493611644552e+18
2026-03-04T19:36:01.438+01:00,1772649361.44,2.2011172771453857,0.954330325126648,-1.0286777019500732,1.0246820657004625,1,0.04130483791232109,-0.052195124328136444,-0.006591307930648327,0.002201080322265625,-0.004617888480424881,-9.194924354553223,0.9938765168190002,-0.07980559766292572,-0.07638157159090042,-0.0025364018511027098,1.772649361420726e+18,0.1000000461935997,0.1000000461935997,3.0,58.86579132080078,43.61084951823189,3.8768755963563906,1772649361185711.0,-1.0611968040466309,1.0507855415344238,-0.2991880774497986,1.0,1.7726493611857119e+18,58.713478088378906,100621.3515625,1013.25,1.772649361405719e+18,0.32597291469573975,-0.01285167783498764,0.12458605319261551,1.7726493614057385e+18,8192.0,0.9999998807907104,0.0,0.0,0.0,0.0,0.0,0.0,1.7726493613633254e+18
2026-03-04T19:36:01.636+01:00,1772649361.636,2.0850329399108887,1.0612913370132446,-1.050064206123352,0.6058089734222943,1,0.07253663241863251,0.0334843248128891,-0.0027979877777397633,0.002226773649454117,-0.0030875131487846375,-9.394444465637207,0.994354248046875,-0.07400292158126831,-0.07600513845682144,-0.0025608486030250788,1.7726493616215826e+18,0.1000000461935997,0.1000000461935997,3.0,58.92701721191406,43.61084772035535,3.8768779945689285,1772649361405725.0,-0.7557273507118225,0.7126697897911072,-0.19417667388916016,1.0,1.7726493614057252e+18,58.77421951293945,100620.625,1013.25,1.7726493616185807e+18,0.3229048550128937,-0.011211005970835686,0.12952756881713867,1.7726493616185969e+18,8192.0,0.9999998807907104,0.0,0.0,0.0,0.0,0.0,0.0,1.7726493615549932e+18
2026-03-04T19:36:01.840+01:00,1772649361.84,2.015660524368286,1.1212658882141113,-1.0469605922698975,0.230141253717896,1,0.09931891411542892,0.09131676703691483,-0.0012670074356719851,0.0009669866412878036,-0.0009723249822854996,-9.621034622192383,0.9954373240470886,-0.06533735245466232,-0.06949099898338318,-0.002572836820036173,1.7726493618225815e+18,0.1000000461935997,0.1000000461935997,3.0,58.95075225830078,43.610846549790416,3.8768794784393754,1772649361618587.0,-0.4559275507926941,0.40670520067214966,-0.032876498997211456,1.0,1.772649361618587e+18,59.236385345458984,100615.1171875,1013.25,1.7726493618216635e+18,0.3206465244293213,0.0008329222910106182,0.12621092796325684,1.7726493618216786e+18,8192.0,0.9999998807907104,0.0,0.0,0.0,0.0,0.0,0.0,1.7726493617583314e+18
2026-03-04T19:36:02.038+01:00,1772649362.039,2.003526449203491,1.1264128684997559,-1.0268453359603882,0.1516483146529554,1,-0.06978196650743484,1.3406413793563843,0.002371331211179495,0.0008074510842561722,0.00014518294483423233,-10.543970108032227,0.9979788064956665,-0.060821834951639175,-0.017610948532819748,-0.005372500978410244,1.772649362025653e+18,0.1000000461935997,0.1000000461935997,3.0,58.94758605957031,43.61084600472809,3.876880125642073,1772649361800683.0,-0.2022867053747177,0.16221126914024353,0.062130123376846313,1.0,1.7726493618006838e+18,58.72404098510742,100621.25,1013.25,1.7726493620135936e+18,0.31196129322052,-0.0129016675055027,0.1568807065486908,1.7726493620136095e+18,8192.0,0.9999998807907104,0.0,0.0,0.0,0.0,0.0,0.0,1.7726493619711101e+18
2026-03-04T19:36:02.241+01:00,1772649362.242,2.014749050140381,1.0815200805664062,-1.0161370038986206,0.3601060673883426,1,0.08722654730081558,0.3097371459007263,0.05919015407562256,0.0009100176393985748,0.000682637095451355,-9.794271469116211,0.996856689453125,-0.06007493659853935,0.051176946610212326,-0.006981735583394766,1.772649362225257e+18,0.1000000461935997,0.1000000461935997,3.0,58.929908752441406,43.61084586609191,3.8768802378176,1772649361992575.0,0.04227765277028084,-0.0696161761879921,0.10999006778001785,1.0,1.772649361992575e+18,59.10697937011719,100616.65625,1013.25,1.7726493622129777e+18,0.28404325246810913,-0.007386816665530205,0.21167658269405365,1.7726493622129938e+18,8192.0,0.9999998807907104,0.0,0.0,0.0,0.0,0.0,0.0,1.772649362170709e+18
2026-03-04T19:36:02.439+01:00,1772649362.44,1.9921663999557495,0.9874240756034851,-1.002122163772583,0.6266705894813518,1,0.10289923846721649,-0.011265208013355732,0.07914276421070099,0.0003564460203051567,0.0021817218512296677,-9.83860969543457,0.9969353675842285,-0.04914989322423935,0.06085938960313797,-0.0004980283556506038,1.7726493624257208e+18,0.1000000461935997,0.1000000461935997,3.0,58.91655731201172,43.61084598118802,3.87687967567456,1772649362212983.0,0.0019774744287133217,-0.3447917103767395,0.054537661373615265,1.0,1.7726493622129836e+18,59.07264709472656,100617.078125,1013.25,1.7726493624165284e+18,0.2733986973762512,-0.005775866098701954,0.21643489599227905,1.7726493624165458e+18,8192.0,0.9999998807907104,0.0,0.0,0.0,0.0,0.0,0.0,1.7726493622815795e+18
2026-03-04T19:36:02.639+01:00,1772649362.64,1.9281951189041138,0.8639663457870483,-0.9857118129730225,0.8848107624443801,1,0.08792052417993546,-0.08843523263931274,0.035246964544057846,0.0012779626995325089,0.0037628193385899067,-9.940479278564453,0.9977355003356934,-0.03920311853289604,0.054398953914642334,0.005269378423690796,1.7726493626260739e+18,0.1000000461935997,0.1000000461935997,3.0,58.90270233154297,43.61084579019483,3.8768785265990218,1772649362416534.0,-0.22508099675178528,-0.565769374370575,0.08135145157575607,1.0,1.7726493624165345e+18,58.708194732666016,100621.4375,1013.25,1.7726493626228398e+18,0.279829204082489,0.0007982985116541386,0.20427219569683075,1.7726493626228644e+18,8192.0,0.9999998807907104,0.0,0.0,0.0,0.0,0.0,0.0,1.7726493624809388e+18
2026-03-04T19:36:02.841+01:00,1772649362.841,1.8126059770584106,0.6944095492362976,-0.9686481952667236,1.1146087532098454,1,0.0719493106007576,-0.0948265790939331,-0.015178903006017208,0.0027931276708841324,0.005408843979239464,-9.983129501342773,0.9984892010688782,-0.03120301105082035,0.04482493922114372,0.006034504622220993,1.7726493628252646e+18,0.1000000461935997,0.1000000461935997,3.0,58.884742736816406,43.61084515322614,3.8768768449872355,1772649362622848.0,-0.46325021982192993,-0.7483426332473755,0.08789721131324768,1.0,1.7726493626228485e+18,59.13074493408203,100616.375,1013.25,1.7726493628280522e+18,0.282185435295105,0.001790790120139718,0.19718563556671143,1.7726493628280701e+18,8192.0,0.9999998807907104,0.0,0.0,0.0,0.0,0.0,0.0,1.7726493626844147e+18
