timestamp_iso,timestamp_epoch_s,pose_x [m],pose_y [m],pose_z [m],state.speed [m/s],state.landed_state,Imu.angular_velocity.x_val [rad/s],Imu.angular_velocity.y_val [rad/s],Imu.angular_velocity.z_val [rad/s],Imu.linear_acceleration.x_val [m/s^2],Imu.linear_acceleration.y_val [m/s^2],Imu.linear_acceleration.z_val [m/s^2],Imu.orientation.w_val,Imu.orientation.x_val,Imu.orientation.y_val,Imu.orientation.z_val,Imu.time_stamp,Gps.gnss.eph,Gps.gnss.epv,Gps.gnss.fix_type,Gps.gnss.geo_point.altitude [m],Gps.gnss.geo_point.latitude [deg],Gps.gnss.geo_point.longitude [deg],Gps.gnss.time_utc,Gps.gnss.velocity.x_val,Gps.gnss.velocity.y_val,Gps.gnss.velocity.z_val,Gps.is_valid,Gps.time_stamp,Barometer.altitude [m],Barometer.pressure [Pa],Barometer.qnh [Pa],Barometer.time_stamp,Magnetometer.magnetic_field_body.x_val [T],Magnetometer.magnetic_field_body.y_val [T],Magnetometer.magnetic_field_body.z_val [T],Magnetometer.time_stamp [T],Lidar1.point_count [count],Lidar1.pose.orientation.w_val,Lidar1.pose.orientation.x_val,Lidar1.pose.orientation.y_val,Lidar1.pose.orientation.z_val,Lidar1.pose.position.x_val,Lidar1.pose.position.y_val,Lidar1.pose.position.z_val,Lidar1.time_stamp
2026-03-04T19:42:03.016+01:00,1772649723.017,6.41007318336051e-07,1.1449255055140384e-07,6.697817802429199,0.0,0,0.0,0.0,0.0,0.0,0.0,-9.806650161743164,0.9999999403953552,0.0,0.0,2.008494703886754e-07,1.772649722966389e+18,0.10074547678232193,0.10074549913406372,3.0,51.202274322509766,43.61082784765599,3.8768662532309563,1772649722758239.0,0.0,0.0,0.0,1.0,1.7726497227582397e+18,50.98079299926758,100713.796875,1013.25,1.7726497229603953e+18,0.3042338788509369,0.012967025861144066,0.16712553799152374,1.772649722960446e+18,8192.0,0.9999998807907104,0.0,0.0,0.0,0.0,0.0,0.0,1.772649722715971e+18
2026-03-04T19:42:03.180+01:00,1772649723.18,6.41007318336051e-07,1.1449255055140384e-07,6.697817802429199,0.0,0,0.0,0.0,0.0,0.0,0.0,-9.806650161743164,0.9999999403953552,0.0,0.0,2.008494703886754e-07,1.7726497231660055e+18,0.10060928016901016,0.10060930252075195,3.0,51.202274322509766,43.61082784765599,3.8768662532309563,1772649722939815.0,0.0,0.0,0.0,1.0,1.7726497229398157e+18,51.23432159423828,100710.765625,1013.25,1.772649723150717e+18,0.2994566857814789,0.018416469916701317,0.1762503832578659,1.7726497231507348e+18,8192.0,0.9999998807907104,0.0,0.0,0.0,0.0,0.0,0.0,1.7726497230403487e+18
2026-03-04T19:42:03.382+01:00,1772649723.383,6.41007318336051e-07,1.1449255055140384e-07,6.697817802429199,0.0,0,0.0,0.0,0.0,0.0,0.0,-9.806650161743164,0.9999999403953552,0.0,0.0,2.008494703886754e-07,1.7726497233676252e+18,0.10049337893724442,0.10049339383840561,3.0,51.202274322509766,43.61082784765599,3.8768662532309563,1772649723129705.0,0.0,0.0,0.0,1.0,1.7726497231297057e+18,51.223758697509766,100710.890625,1013.25,1.7726497233704806e+18,0.2976374924182892,0.010667100548744202,0.1755654364824295,1.7726497233705034e+18,8192.0,0.9999998807907104,0.0,0.0,0.0,0.0,0.0,0.0,1.7726497232409037e+18
2026-03-04T19:42:03.590+01:00,1772649723.59,6.41007318336051e-07,1.1449255055140384e-07,6.697817802429199,0.0,0,0.0,0.0,0.0,0.0,0.0,-9.806650161743164,0.9999999403953552,0.0,0.0,2.008494703886754e-07,1.7726497235686065e+18,0.10038646310567856,0.10038648545742035,3.0,51.202274322509766,43.61082784765599,3.8768662532309563,1772649723349456.0,0.0,0.0,0.0,1.0,1.772649723349457e+18,51.218475341796875,100710.953125,1013.25,1.7726497235565133e+18,0.2956848442554474,0.012560542672872543,0.1810949146747589,1.7726497235565325e+18,8192.0,0.9999998807907104,0.0,0.0,0.0,0.0,0.0,0.0,1.772649723442249e+18
2026-03-04T19:42:03.798+01:00,1772649723.798,6.41007318336051e-07,1.1449255055140384e-07,6.697817802429199,0.0,0,0.0,0.0,0.0,0.0,0.0,-9.806650161743164,0.9999999403953552,0.0,0.0,2.008494703886754e-07,1.772649723780176e+18,0.10030706971883774,0.10030708461999893,3.0,51.202274322509766,43.61082784765599,3.8768662532309563,1772649723556522.0,0.0,0.0,0.0,1.0,1.7726497235565222e+18,51.61461639404297,100706.2265625,1013.25,1.772649723771068e+18,0.30368441343307495,0.011254450306296349,0.178143709897995,1.7726497237710874e+18,8192.0,0.9999998807907104,0.0,0.0,0.0,0.0,0.0,0.0,1.7726497236538447e+18
2026-03-04T19:42:04.005+01:00,1772649724.005,6.41007318336051e-07,1.1449255055140384e-07,6.697817802429199,0.0,0,0.0,0.0,0.0,0.0,0.0,-9.806650161743164,0.9999999403953552,0.0,0.0,2.008494703886754e-07,1.772649723980604e+18,0.10024191439151764,0.10024192929267883,3.0,51.202274322509766,43.61082784765599,3.8768662532309563,1772649723771074.0,0.0,0.0,0.0,1.0,1.7726497237710748e+18,51.00984191894531,100713.46875,1013.25,1.7726497239715028e+18,0.3023780584335327,0.015481708571314812,0.17644751071929932,1.772649723971525e+18,8192.0,0.9999998807907104,0.0,0.0,0.0,0.0,0.0,0.0,1.7726497238578378e+18
2026-03-04T19:42:04.190+01:00,1772649724.191,6.41007318336051e-07,1.1449255055140384e-07,6.697817802429199,0.0,0,0.0,0.0,0.0,0.0,0.0,-9.806650161743164,0.9999999403953552,0.0,0.0,2.008494703886754e-07,1.772649724174677e+18,0.10019364953041077,0.10019366443157196,3.0,51.202274322509766,43.61082784765599,3.8768662532309563,1772649723971511.0,0.0,0.0,0.0,1.0,1.772649723971512e+18,51.247528076171875,100710.625,1013.25,1.7726497241766776e+18,0.2980669140815735,0.011733394116163254,0.1720915585756302,1.772649724176733e+18,8192.0,0.9999998807907104,0.0,0.0,0.0,0.0,0.0,0.0,1.7726497241130176e+18
2026-03-04T19:42:04.404+01:00,1772649724.405,6.41007318336051e-07,1.1449255055140384e-07,6.697817802429199,0.0,0,0.0,0.0,0.0,0.0,0.0,-9.806650161743164,0.9999999403953552,0.0,0.0,2.008494703886754e-07,1.7726497243770388e+18,0.10015790909528732,0.10015792399644852,3.0,51.202274322509766,43.61082784765599,3.8768662532309563,1772649724155083.0,0.0,0.0,0.0,1.0,1.7726497241550838e+18,51.242244720458984,100710.6875,1013.25,1.7726497243709048e+18,0.29049479961395264,0.010756476782262325,0.1727742701768875,1.7726497243709222e+18,8192.0,0.9999998807907104,0.0,0.0,0.0,0.0,0.0,0.0,1.7726497243274934e+18
2026-03-04T19:42:04.607+01:00,1772649724.607,6.41007318336051e-07,1.1449255055140384e-07,6.697817802429199,0.0,0,0.0,0.0,0.0,0.0,0.0,-9.806650161743164,0.9999999403953552,0.0,0.0,2.008494703886754e-07,1.7726497245794547e+18,0.10012725740671158,0.10012725740671158,3.0,51.202274322509766,43.61082784765599,3.8768662532309563,1772649724349382.0,0.0,0.0,0.0,1.0,1.772649724349383e+18,51.33995819091797,100709.5,1013.25,1.7726497245701998e+18,0.29667702317237854,0.008816010318696499,0.1768302023410797,1.7726497245702203e+18,8192.0,0.9999998807907104,0.0,0.0,0.0,0.0,0.0,0.0,1.7726497245272195e+18
2026-03-04T19:42:04.838+01:00,1772649724.838,6.41007318336051e-07,1.1449255055140384e-07,6.697817802429199,0.0,0,0.0,0.0,0.0,0.0,0.0,-9.806650161743164,0.9999999403953552,0.0,0.0,2.008494703886754e-07,1.7726497247911268e+18,0.10009962320327759,0.10009962320327759,3.0,51.202274322509766,43.61082784765599,3.8768662532309563,1772649724570208.0,0.0,0.0,0.0,1.0,1.772649724570208e+18,51.2528076171875,100710.5625,1013.25,1.77264972477913e+18,0.28964564204216003,0.0039278604090213776,0.17330224812030792,1.7726497247791526e+18,8192.0,0.9999998807907104,0.0,0.0,0.0,0.0,0.0,0.0,1.7726497247291863e+18
2026-03-04T19:42:05.048+01:00,1772649725.049,6.41007318336051e-07,1.1449255055140384e-07,6.697817802429199,0.0,0,0.0,0.0,0.0,0.0,0.0,-9.806650161743164,0.9999999403953552,0.0,0.0,2.008494703886754e-07,1.7726497249927135e+18,0.1000789999961853,0.1000789999961853,3.0,51.202274322509766,43.61082784765599,3.8768662532309563,1772649724779137.0,0.0,0.0,0.0,1.0,1.7726497247791378e+18,51.36372756958008,100709.2421875,1013.25,1.7726497249836938e+18,0.2995600700378418,0.004833065904676914,0.1745651662349701,1.772649724983709e+18,8192.0,0.9999998807907104,0.0,0.0,0.0,0.0,0.0,0.0,1.77264972494054e+18
2026-03-04T19:42:05.248+01:00,1772649725.248,6.383847903634887e-07,1.1275130873400485e-07,6.67418098449707,0.4600063860416849,1,-1.9532100850483403e-05,-9.784643225430045e-06,9.305627486355661e-07,-6.224509974117609e-08,1.2648821723360015e-07,-9.514315605163574,1.0,2.774596339349955e-07,1.6679798875429697e-07,2.0910998443923745e-07,1.7726497251957599e+18,0.10006296634674072,0.10006296634674072,3.0,51.202274322509766,43.61082784765599,3.8768662532309563,1772649724983699.0,0.0,0.0,0.0,1.0,1.7726497249836995e+18,51.36372756958008,100709.2109375,1013.25,1.7726497251886894e+18,0.3010523319244385,0.007366794161498547,0.16944710910320282,1.772649725188703e+18,8192.0,0.9999998807907104,0.0,0.0,0.0,0.0,0.0,0.0,1.7726497251468403e+18
2026-03-04T19:42:05.443+01:00,1772649725.443,6.11984035003843e-07,2.541112564813375e-07,6.581090450286865,0.45268943906316605,1,-6.686084361717803e-06,3.370502099642181e-07,8.716395427654788e-07,5.599348540386018e-09,8.072008483850368e-08,-9.852587699890137,1.0,5.403767886491551e-07,-9.181678706227103e-08,3.3748793271115574e-07,1.772649725398731e+18,0.10005127638578415,0.10005127638578415,3.0,51.22884750366211,43.61082784765596,3.8768662532309324,1772649725168471.0,-1.3833460599244063e-08,-6.8367045358286305e-09,-0.46930092573165894,1.0,1.7726497251684716e+18,51.379573822021484,100709.03125,1013.25,1.772649725383649e+18,0.30440595746040344,0.009838107973337173,0.17636065185070038,1.7726497253836685e+18,8192.0,0.9999998807907104,0.0,0.0,0.0,0.0,0.0,0.0,1.7726497253421353e+18
2026-03-04T19:42:05.637+01:00,1772649725.638,6.70218412324175e-07,7.693252541685069e-07,6.488548278808594,0.4617007374847267,1,-1.213863129123638e-06,3.3722999432939105e-06,3.534144923378335e-07,9.158967628764003e-08,3.267272319362746e-08,-9.843696594238281,1.0,-1.6534892210984253e-07,-1.2141933325438004e-07,3.956993737119774e-07,1.7726497256011487e+18,0.10004039108753204,0.10004039108753204,3.0,51.326717376708984,43.610827847655735,3.8768662532330667,1772649725383659.0,4.0223547159712325e-08,1.926717004607781e-06,-0.45199304819107056,1.0,1.7726497253836593e+18,51.33995819091797,100709.515625,1013.25,1.7726497255860836e+18,0.3017493784427643,0.005319025833159685,0.17426809668540955,1.7726497255861007e+18,8192.0,0.9999998807907104,0.0,0.0,0.0,0.0,0.0,0.0,1.7726497255437824e+18
2026-03-04T19:42:05.858+01:00,1772649725.859,8.523410883753968e-07,1.2667242117458954e-06,6.393164157867432,0.4688508808661911,1,7.882938035663756e-08,6.72821840908e-07,1.4294791128577344e-07,1.1423470169802385e-08,-1.188436349330857e-09,-9.835537910461426,1.0,-1.952987105369175e-07,2.2026979351608134e-08,4.1899244251908385e-07,1.7726497258024356e+18,0.10003304481506348,0.10003304481506348,3.0,51.4088020324707,43.61082784765621,3.8768662532388607,1772649725565162.0,6.671639880551083e-07,2.7928192594117718e-06,-0.46035170555114746,1.0,1.7726497255651628e+18,51.45616149902344,100708.1328125,1013.25,1.772649725785742e+18,0.29839950799942017,0.02055736444890499,0.17156869173049927,1.7726497257857628e+18,8192.0,0.9999998807907104,0.0,0.0,0.0,0.0,0.0,0.0,1.7726497257431575e+18
2026-03-04T19:42:06.040+01:00,1772649726.04,1.0377924581916886e-06,1.6030558072088752e-06,6.2971038818359375,0.4746448397657767,1,-6.45904307816636e-08,2.1529024252231466e-07,5.8845053274581005e-08,6.6598535575224105e-09,1.7415503483775296e-09,-9.830459594726562,1.0,-1.918760261787611e-07,4.273982412428268e-08,4.2762908947224787e-07,1.772649726006335e+18,0.10002585500478745,0.10002585500478745,3.0,51.5118522644043,43.61082784765798,3.8768662532454905,1772649725785751.0,9.536040010971192e-07,1.989117208722746e-06,-0.4683634340763092,1.0,1.7726497257857518e+18,51.73610305786133,100704.7734375,1013.25,1.7726497259881674e+18,0.2956225574016571,0.011357847601175308,0.17869988083839417,1.7726497259881846e+18,8192.0,0.9999998807907104,0.0,0.0,0.0,0.0,0.0,0.0,1.772649725945113e+18
2026-03-04T19:42:06.242+01:00,1772649726.242,1.1913218713743845e-06,1.7855761598184472e-06,6.200843334197998,0.4792842864997373,1,1.0964386376599577e-07,1.096092532293369e-07,2.1733894683961807e-09,3.193588726801977e-09,-3.5775233886425895e-09,-9.825628280639648,1.0,-1.0894945035033743e-07,5.686146664629632e-08,4.303026628349471e-07,1.7726497262096276e+18,0.100020632147789,0.100020632147789,3.0,51.60653305053711,43.610827847659614,3.876866253249511,1772649725988175.0,8.387419256905559e-07,1.2295362239456153e-06,-0.4742109477519989,1.0,1.7726497259881754e+18,51.68328094482422,100705.40625,1013.25,1.7726497261915796e+18,0.2973093092441559,0.023580584675073624,0.17128285765647888,1.772649726191595e+18,8192.0,0.9999998807907104,0.0,0.0,0.0,0.0,0.0,0.0,1.772649726148098e+18
2026-03-04T19:42:06.453+01:00,1772649726.453,1.301773295381281e-06,1.862194721979904e-06,6.104191303253174,0.4829925894739023,1,-6.915733479218034e-07,-9.526311828267353e-08,-4.802633846168192e-09,-1.3086441930099113e-09,1.035266716797878e-08,-9.820243835449219,1.0,-9.484130458758955e-08,5.3593787185945985e-08,4.299009788155672e-07,1.7726497264108933e+18,0.10001648217439651,0.10001648217439651,3.0,51.70349884033203,43.61082784766099,3.8768662532517206,1772649726191585.0,6.498163429569104e-07,5.751041385337885e-07,-0.47893989086151123,1.0,1.7726497261915858e+18,51.68328094482422,100705.3984375,1013.25,1.7726497263928323e+18,0.29898324608802795,0.021747441962361336,0.1794343739748001,1.7726497263928484e+18,8192.0,0.9999998807907104,0.0,0.0,0.0,0.0,0.0,0.0,1.772649726350494e+18
2026-03-04T19:42:06.650+01:00,1772649726.65,1.3748656328971265e-06,1.8646463786353706e-06,5.992886066436768,0.4859042465687249,1,-5.599696351055172e-08,6.106533945171577e-09,-3.1010212175885954e-09,1.7560723708509585e-10,1.2371978996839061e-09,-9.818381309509277,1.0,1.8095947851293204e-08,4.371008799353149e-08,4.2948821032950946e-07,1.7726497266136353e+18,0.1000131294131279,0.1000131294131279,3.0,51.80070114135742,43.61082784766198,3.876866253252622,1772649726392839.0,4.2189921600765956e-07,1.3033863410782942e-07,-0.4827406704425812,1.0,1.7726497263928392e+18,51.60141372680664,100706.390625,1013.25,1.772649726613628e+18,0.2939237356185913,0.008197881281375885,0.17324917018413544,1.7726497265921649e+18,8192.0,0.9999998807907104,0.0,0.0,0.0,0.0,0.0,0.0,1.7726497264681787e+18
2026-03-04T19:42:06.858+01:00,1772649726.858,1.3997832866152748e-06,1.8661042986423126e-06,5.898011207580566,0.48833099007606656,1,-3.303170359458818e-08,-2.4531825459916945e-08,8.5563769403052e-09,-6.45117126385486e-10,5.562775240441908e-10,-9.816414833068848,1.0,-6.6003229548528e-09,4.118852814372076e-08,4.296460360819765e-07,1.7726497268171794e+18,0.10001029819250107,0.10001029819250107,3.0,51.907203674316406,43.610827847662605,3.876866253252636,1772649726613632.0,2.0888134599772457e-07,-1.3993250114197053e-08,-0.4859042465686798,1.0,1.7726497266136328e+18,52.01076126098633,100701.484375,1013.25,1.7726497268141855e+18,0.29626891016960144,0.012576811015605927,0.17422562837600708,1.7726497268142118e+18,8192.0,0.9999998807907104,0.0,0.0,0.0,0.0,0.0,0.0,1.7726497266705078e+18
2026-03-04T19:42:07.065+01:00,1772649727.066,1.397114829160273e-06,1.865548370005854e-06,5.82147741317749,0.4903091788292077,1,1.3080334326787124e-07,-8.625629099867638e-09,-1.4200039366585315e-08,-2.832300505239971e-10,-4.293892796880527e-09,-9.814067840576172,1.0,-9.196630124108651e-09,2.8396543783060224e-08,4.296785789392743e-07,1.772649727019327e+18,0.10000850260257721,0.10000850260257721,3.0,51.994266510009766,43.610827847662804,3.876866253252651,1772649726792102.0,5.669679481457024e-08,1.4457860686434287e-08,-0.48807796835899353,1.0,1.772649726792103e+18,51.85758590698242,100703.3125,1013.25,1.772649727003817e+18,0.29220062494277954,0.0069222766906023026,0.17305995523929596,1.7726497270038423e+18,8192.0,0.9999998807907104,0.0,0.0,0.0,0.0,0.0,0.0,1.7726497269610655e+18
2026-03-04T19:42:07.279+01:00,1772649727.28,1.3655877637575031e-06,1.8535985191192594e-06,5.711890697479248,0.4918579161167691,1,6.552340181542604e-08,-1.1530290322525616e-07,-1.0557746676909119e-08,-3.1362601404794077e-09,-1.7822747722107124e-09,-9.81190299987793,1.0,1.1739405003652337e-09,2.335228899141839e-08,4.2838010472223687e-07,1.7726497272270807e+18,0.10000678151845932,0.10000678151845932,3.0,52.097694396972656,43.61082784766276,3.876866253252628,1772649727003828.0,-1.0237690162284707e-07,-4.1795004790401435e-08,-0.49019309878349304,1.0,1.7726497270038285e+18,52.31446838378906,100697.8671875,1013.25,1.7726497272090458e+18,0.29720428586006165,0.021910542622208595,0.17168334126472473,1.7726497272090647e+18,8192.0,0.9999998807907104,0.0,0.0,0.0,0.0,0.0,0.0,1.7726497269610655e+18
2026-03-04T19:42:07.464+01:00,1772649727.464,1.3044217439528438e-06,1.8387261206953553e-06,5.593843460083008,0.4931116402150132,1,-5.177146888968309e-08,-2.6309070477736896e-08,-4.2297068070240584e-09,-4.861667318722951e-11,9.564682379448186e-11,-9.81112289428711,1.0,1.8530941225947117e-09,1.4314823104655261e-08,4.276699883121182e-07,1.7726497274280904e+18,0.10000541806221008,0.10000541806221008,3.0,52.198524475097656,43.61082784766247,3.876866253252481,1772649727209054.0,-2.1397724481175828e-07,-6.540722097270191e-08,-0.4917636811733246,1.0,1.7726497272090545e+18,51.95001983642578,100702.2109375,1013.25,1.772649727427901e+18,0.2905588150024414,0.010418115183711052,0.17404913902282715,1.7726497274279232e+18,8192.0,0.9999998807907104,0.0,0.0,0.0,0.0,0.0,0.0,1.772649727321315e+18
2026-03-04T19:42:07.684+01:00,1772649727.685,1.2566935083668795e-06,1.8307437130715698e-06,5.519783973693848,0.49399417638791443,1,-7.167541582475678e-08,-1.3223115047367173e-07,-8.150441210830195e-09,-3.1577489512102375e-09,1.7116551509488431e-09,-9.808037757873535,1.0,-3.6701750527612376e-09,1.0139707740108861e-08,4.271645366316079e-07,1.7726497276316362e+18,0.10000436753034592,0.10000436753034592,3.0,52.29561233520508,43.610827847662016,3.876866253252329,1772649727406096.0,-2.9173830284889846e-07,-5.636794497831943e-08,-0.4930100440979004,1.0,1.7726497274060966e+18,52.54951095581055,100695.0625,1013.25,1.7726497276135744e+18,0.29464057087898254,0.016318045556545258,0.17463527619838715,1.7726497276136028e+18,8192.0,0.9999998807907104,0.0,0.0,0.0,0.0,0.0,0.0,1.7726497275292652e+18
2026-03-04T19:42:07.865+01:00,1772649727.866,1.16758860713162e-06,1.8155807310904493e-06,5.3979692459106445,0.4945852756501727,1,-1.4844383500189906e-08,-1.0256646731932051e-07,-9.622711516499294e-09,-2.493035777817454e-09,3.608069121252555e-10,-9.808150291442871,1.0,-6.30360652564832e-09,7.991552419817083e-10,4.261816570760857e-07,1.772649727833157e+18,0.10000349581241608,0.10000349581241608,3.0,52.398109436035156,43.61082784766141,3.8768662532521905,1772649727613587.0,-3.467639544396661e-07,-5.4419988515519435e-08,-0.4939650595188141,1.0,1.7726497276135882e+18,52.597049713134766,100694.46875,1013.25,1.7726497278156598e+18,0.2953502833843231,0.003620484843850136,0.1636110097169876,1.7726497278156826e+18,8192.0,0.9999998807907104,0.0,0.0,0.0,0.0,0.0,0.0,1.7726497275292652e+18
2026-03-04T19:42:08.098+01:00,1772649728.099,1.1065884564231965e-06,1.8016005469689844e-06,5.305596351623535,1.2359944581986029,1,-1.4844383500189906e-08,-1.0256646731932051e-07,-9.622711516499294e-09,-3.0012519136590754e-09,4.3436079733005784e-10,-16.430715560913086,1.0,-7.806251645092743e-09,-9.583308369087717e-09,4.252075029853586e-07,1.7726497280356163e+18,0.10000278055667877,0.10000278055667877,3.0,52.49825668334961,43.61082784766075,3.8768662532520337,1772649727815669.0,-3.7489729720618925e-07,-7.390669054530008e-08,-0.4945577085018158,1.0,1.77264972781567e+18,52.5098991394043,100695.515625,1013.25,1.7726497280338327e+18,0.3057154417037964,0.012759827077388763,0.18322275578975677,1.7726497280338552e+18,8192.0,0.9999998807907104,0.0,0.0,0.0,0.0,0.0,0.0,1.7726497279246195e+18
2026-03-04T19:42:08.266+01:00,1772649728.267,1.0386866051703691e-06,1.7836824781625182e-06,4.932061195373535,1.6882185935974272,1,-3.4796144063875545e-06,3.3682790672173724e-06,-1.636234060242714e-06,2.335836057909546e-08,2.4448333135751454e-08,-8.676661491394043,1.0,1.9376744830879034e-07,-1.9626075697942724e-07,3.274982134371385e-07,1.7726497282375985e+18,0.10000225156545639,0.10000225156545639,3.0,52.62118148803711,43.61082784766008,3.876866253251819,1772649728012783.0,-3.5950299093201465e-07,-1.085232028685823e-07,-1.0842058658599854,1.0,1.7726497280127834e+18,52.94301223754883,100690.3515625,1013.25,1.7726497282181599e+18,0.29271820187568665,0.006613330915570259,0.1741907000541687,1.7726497282181847e+18,8192.0,0.9999998807907104,0.0,0.0,0.0,0.0,0.0,0.0,1.7726497281335127e+18
2026-03-04T19:42:08.479+01:00,1772649728.48,1.080805873243662e-06,1.8620299897520454e-06,4.667895793914795,1.6018917560582087,1,-2.3781358322594315e-06,1.771801976246934e-07,-1.056737914950645e-06,5.4129194460017516e-09,7.033466431494162e-08,-9.861517906188965,1.0,1.8662454692730535e-07,-6.44425028895057e-08,1.9947057694480463e-07,1.7726497284395064e+18,0.1000017523765564,0.1000017523765564,3.0,52.95178985595703,43.610827847659564,3.876866253251614,1772649728218170.0,-2.8614836722340442e-08,1.496522656907473e-07,-1.714379906654358,1.0,1.77264972821817e+18,53.24407958984375,100686.7421875,1013.25,1.7726497284394926e+18,0.3014737367630005,0.009951983578503132,0.1770472526550293,1.7726497284185134e+18,8192.0,0.9999998807907104,0.0,0.0,0.0,0.0,0.0,0.0,1.7726497281335127e+18
2026-03-04T19:42:08.668+01:00,1772649728.669,1.2146788321842905e-06,2.1623823158734012e-06,4.304635524749756,1.5887840986261546,1,-3.0417700145335402e-06,6.780437047382293e-07,-4.7269753622458666e-07,1.9209887014426386e-08,9.021033520184574e-08,-9.707840919494629,1.0,-4.421697497036803e-08,-2.2517015807466123e-08,1.2646687252981792e-07,1.7726497286424312e+18,0.10000135749578476,0.10000135749578476,3.0,53.275821685791016,43.610827847660055,3.876866253252925,1772649728418504.0,4.828043529414572e-07,1.0305658406650764e-06,-1.5998896360397339,1.0,1.7726497284185042e+18,53.56891632080078,100682.8671875,1013.25,1.7726497286393894e+18,0.3074178099632263,0.014947904273867607,0.17955449223518372,1.7726497286394053e+18,8192.0,0.9999998807907104,0.0,0.0,0.0,0.0,0.0,0.0,1.772649728517256e+18
2026-03-04T19:42:08.872+01:00,1772649728.873,1.3834229548592702e-06,2.5038777948793722e-06,3.948472499847412,1.5706337690360013,1,-4.4880633254251734e-07,4.7260047608688183e-07,-1.60723203634916e-07,1.3566220147254171e-08,1.650681369369522e-08,-9.730905532836914,1.0,-2.2427555279591616e-07,3.2187301712838234e-08,9.733345507356717e-08,1.772649728843449e+18,0.10000109672546387,0.10000109672546387,3.0,53.595455169677734,43.61082784766115,3.8768662532563227,1772649728618298.0,7.196605906756304e-07,1.6054245861596428e-06,-1.5912010669708252,1.0,1.7726497286182986e+18,53.719451904296875,100681.0703125,1013.25,1.7726497288374492e+18,0.2924647033214569,0.013644015416502953,0.17765091359615326,1.7726497288374692e+18,8192.0,0.9999998807907104,0.0,0.0,0.0,0.0,0.0,0.0,1.7726497287244265e+18
2026-03-04T19:42:09.099+01:00,1772649729.099,1.4878055480949115e-06,2.6519130642554956e-06,3.7088735103607178,1.5561985969546817,1,-3.0896076168573927e-06,3.230825029731932e-07,-5.7637471684302e-08,9.344709006597895e-09,8.974306808795518e-08,-9.745813369750977,1.0,-6.299912058693735e-08,4.376908080416797e-08,8.596014566819576e-08,1.7726497290448236e+18,0.10000096261501312,0.10000096261501312,3.0,53.908714294433594,43.61082784766249,3.8768662532601095,1772649728815991.0,7.415809477606672e-07,1.3618642924484448e-06,-1.5726885795593262,1.0,1.772649728815992e+18,54.39817428588867,100672.9609375,1013.25,1.7726497290298068e+18,0.30157598853111267,0.009885121136903763,0.17101018130779266,1.7726497290298237e+18,8192.0,0.9999998807907104,0.0,0.0,0.0,0.0,0.0,0.0,1.7726497287244265e+18
2026-03-04T19:42:09.267+01:00,1772649729.268,1.6094602415250847e-06,2.812894763337681e-06,3.36039137840271,1.5447373390198575,1,3.68239966519468e-06,1.2275944527573301e-07,-1.278533456883224e-08,3.024909212001603e-09,-8.935750628324968e-08,-9.76022720336914,1.0,-1.678495777923672e-07,6.531530516440398e-08,8.270423990097697e-08,1.7726497292451546e+18,0.10000085830688477,0.10000085830688477,3.0,54.24308395385742,43.610827847663806,3.876866253262738,1772649729029814.0,6.112531991675496e-07,8.429430522483017e-07,-1.5571105480194092,1.0,1.7726497290298143e+18,54.71244430541992,100669.171875,1013.25,1.7726497292451446e+18,0.299483060836792,0.005059295333921909,0.17551587522029877,1.7726497292241953e+18,8192.0,0.9999998807907104,0.0,0.0,0.0,0.0,0.0,0.0,1.7726497291368817e+18
2026-03-04T19:42:09.477+01:00,1772649729.477,1.6612754052403034e-06,2.84266297967406e-06,3.110567331314087,1.5356427431106627,1,-2.5137723014267976e-07,-5.0792991146408895e-08,1.1199146054963194e-09,-1.2361937029581327e-09,7.730726281351963e-09,-9.76819896697998,1.0,-9.324739380645042e-08,5.701492966636579e-08,8.272154872202009e-08,1.7726497294489083e+18,0.10000075399875641,0.10000075399875641,3.0,54.545047760009766,43.610827847664716,3.876866253264399,1772649729224182.0,4.160860953561496e-07,3.94929116964704e-07,-1.5456959009170532,1.0,1.772649729224183e+18,54.50909423828125,100671.6328125,1013.25,1.7726497294435177e+18,0.3000204861164093,0.010898408479988575,0.17676220834255219,1.7726497294435446e+18,8192.0,0.9999998807907104,0.0,0.0,0.0,0.0,0.0,0.0,1.7726497293255096e+18
2026-03-04T19:42:09.690+01:00,1772649729.692,1.6806609437480802e-06,2.833125108736567e-06,2.764117479324341,1.5282272100448677,1,-5.523486379388487e-08,-1.0132790606576236e-07,-4.607883408169755e-09,-2.9485935915118944e-09,2.7597386598188223e-09,-9.7746000289917,1.0,7.3002044409520295e-09,5.0175415822195646e-08,8.196463596732428e-08,1.7726497296509148e+18,0.10000066459178925,0.10000066459178925,3.0,54.882659912109375,43.61082784766526,3.876866253264815,1772649729443527.0,1.4053601660179993e-07,2.738354609732596e-08,-1.5358500480651855,1.0,1.7726497294435277e+18,55.01615524291992,100665.5625,1013.25,1.7726497296509056e+18,0.30546391010284424,0.017618734389543533,0.17769083380699158,1.772649729629913e+18,8192.0,0.9999998807907104,0.0,0.0,0.0,0.0,0.0,0.0,1.772649729540686e+18
2026-03-04T19:42:09.878+01:00,1772649729.879,1.6439133787571336e-06,2.81207348962198e-06,2.3969244956970215,1.5222638845443957,1,-3.980323697305721e-07,-1.0258236216031946e-07,-1.5626610005980979e-09,-2.9479594321202285e-09,1.1812677946920758e-08,-9.781876564025879,1.0,3.754952260237587e-08,4.174716750071639e-08,8.123046768560016e-08,1.7726497298525025e+18,0.10000059008598328,0.10000059008598328,3.0,55.200016021728516,43.61082784766531,3.876866253264567,1772649729650912.0,-8.096854031691691e-08,-1.207921371815246e-07,-1.5282272100448608,1.0,1.772649729650912e+18,55.62621307373047,100658.265625,1013.25,1.7726497298524933e+18,0.2954365313053131,0.015951910987496376,0.1727992594242096,1.7726497298312438e+18,8192.0,0.9999998807907104,0.0,0.0,0.0,0.0,0.0,0.0,1.772649729540686e+18
2026-03-04T19:42:10.084+01:00,1772649730.084,1.5940121329549584e-06,2.8214578833285486e-06,2.1620676517486572,1.517561197280945,1,-1.5224787830447895e-07,-2.6142313913624093e-07,5.3148654366452774e-09,-7.492212183990432e-09,4.3633145985211286e-09,-9.786073684692383,1.0,1.3853719948997423e-08,2.730056181121654e-08,8.098881210116815e-08,1.7726497300551532e+18,0.1000005230307579,0.1000005230307579,3.0,55.47505187988281,43.61082784766505,3.876866253264372,1772649729831227.0,-2.480837792973034e-07,-8.686692254400441e-09,-1.5227841138839722,1.0,1.772649729831228e+18,55.665828704833984,100657.8046875,1013.25,1.772649730037158e+18,0.2929765582084656,0.011872273869812489,0.181276336312294,1.772649730037175e+18,8192.0,0.9999998807907104,0.0,0.0,0.0,0.0,0.0,0.0,1.7726497299400622e+18
2026-03-04T19:42:10.282+01:00,1772649730.282,1.4903325791237876e-06,2.8545082386699505e-06,1.8078700304031372,1.5137039422989806,1,-1.6910593814145614e-08,-1.972707650566008e-07,4.553457344513845e-08,-5.126829627499774e-09,4.394977159982716e-10,-9.789790153503418,1.0,4.7820347681692965e-09,1.3853687086395894e-08,8.371564774733997e-08,1.7726497302585037e+18,0.10000046342611313,0.10000046342611313,3.0,55.7882194519043,43.610827847664446,3.876866253264535,1772649730037165.0,-4.037975713799824e-07,1.2264185045296472e-07,-1.5178675651550293,1.0,1.7726497300371653e+18,56.01707077026367,100653.59375,1013.25,1.7726497302465044e+18,0.3060659170150757,0.011243400163948536,0.17453789710998535,1.772649730246529e+18,8192.0,0.9999998807907104,0.0,0.0,0.0,0.0,0.0,0.0,1.7726497301399053e+18
2026-03-04T19:42:10.492+01:00,1772649730.493,1.4113999213805073e-06,2.880272404581774e-06,1.5758506059646606,1.510494828224287,1,-1.46082825835947e-07,1.553353357053311e-08,3.2140356154286565e-08,4.746426029988982e-10,4.4637173957085e-09,-9.791409492492676,1.0,2.0503201358934575e-09,2.5420996419001085e-09,8.747791468977084e-08,1.772649730460359e+18,0.10000040382146835,0.10000040382146835,3.0,56.10595703125,43.610827847663586,3.876866253264915,1772649730246513.0,-4.974965577275725e-07,1.6193945384657127e-07,-1.5138603448867798,1.0,1.772649730246514e+18,56.36039352416992,100649.5,1013.25,1.7726497304603466e+18,0.297903835773468,0.011816275306046009,0.17028401792049408,1.7726497304390154e+18,8192.0,0.9999998807907104,0.0,0.0,0.0,0.0,0.0,0.0,1.772649730375039e+18
2026-03-04T19:42:10.698+01:00,1772649730.699,1.288464204662887e-06,2.921624627560959e-06,1.2292523384094238,1.5078310966492792,1,5.233742683685705e-08,2.2350592487896392e-08,2.5251642554735554e-08,4.748965665157812e-10,-1.112029690553129e-09,-9.79321575164795,1.0,-3.0211162460602736e-09,5.0995492273386844e-09,9.03521524264761e-08,1.7726497306619776e+18,0.10000035911798477,0.10000035911798477,3.0,56.39662551879883,43.61082784766269,3.8768662532653204,1772649730439006.0,-5.322183938005765e-07,1.7868202917270537e-07,-1.510815978050232,1.0,1.7726497304390067e+18,56.75125503540039,100644.8125,1013.25,1.7726497306588698e+18,0.29538682103157043,0.017254065722227097,0.17585055530071259,1.7726497306588874e+18,8192.0,0.9999998807907104,0.0,0.0,0.0,0.0,0.0,0.0,1.772649730375039e+18
2026-03-04T19:42:10.887+01:00,1772649730.887,1.1607670558078098e-06,2.9610459932882804e-06,0.8819403052330017,1.5058108568192672,1,1.212093714286766e-08,3.3203619409505336e-08,4.6002941900269434e-08,1.5407745912465742e-10,-5.6246816232397023e-11,-9.79822063446045,1.0,-8.662330852615696e-10,1.104281666108875e-09,9.381212606740519e-08,1.7726497308636347e+18,0.10000031441450119,0.10000031441450119,3.0,56.69801330566406,43.610827847661724,3.8768662532657676,1772649730637869.0,-5.44730994533893e-07,1.7599626289666048e-07,-1.5081408023834229,1.0,1.77264973063787e+18,56.95196533203125,100642.4296875,1013.25,1.7726497308571622e+18,0.2977863848209381,0.01583038829267025,0.17753294110298157,1.772649730857188e+18,8192.0,0.9999998807907104,0.0,0.0,0.0,0.0,0.0,0.0,1.7726497307459848e+18
2026-03-04T19:42:11.092+01:00,1772649731.093,1.077170509233838e-06,2.985595529025886e-06,0.6589246988296509,1.5042935609818597,1,8.841319640850998e-07,6.2583622728595856e-09,3.492266387183918e-08,1.3688733306593814e-11,-1.9336985346285473e-09,-9.799623489379883,1.0,-9.427007086060257e-08,-4.698780808887193e-10,9.81348904360857e-08,1.7726497310655588e+18,0.1000002771615982,0.1000002771615982,3.0,57.02787399291992,43.61082784766064,3.8768662532662304,1772649730857173.0,-5.62666684800206e-07,1.6678116310231417e-07,-1.5058395862579346,1.0,1.772649730857174e+18,57.21078109741211,100639.3359375,1013.25,1.7726497310653394e+18,0.29876092076301575,0.01398329995572567,0.16442842781543732,1.772649731065376e+18,8192.0,0.9999998807907104,0.0,0.0,0.0,0.0,0.0,0.0,1.77264973095764e+18
2026-03-04T19:42:11.285+01:00,1772649731.286,9.465271091357863e-07,2.9814430035912665e-06,0.3132478594779968,1.5031070709229688,1,4.5726696384917886e-07,6.877970548657686e-08,-6.514135897361939e-10,7.731627144069719e-11,-5.208837805525945e-10,-9.800395011901855,1.0,1.9904559778183284e-08,-4.653315510694256e-10,9.929747335490902e-08,1.7726497312651402e+18,0.10000023990869522,0.10000023990869522,3.0,57.3089485168457,43.61082784765968,3.8768662532666016,1772649731044252.0,-5.689030331268441e-07,1.1227547958014839e-07,-1.504437804222107,1.0,1.7726497310442524e+18,57.535614013671875,100635.4453125,1013.25,1.7726497312620306e+18,0.3095109760761261,0.017362501472234726,0.179813414812088,1.7726497312620434e+18,8192.0,0.9999998807907104,0.0,0.0,0.0,0.0,0.0,0.0,1.7726497311987274e+18
2026-03-04T19:42:11.484+01:00,1772649731.485,8.160213269547967e-07,2.93630159831082e-06,-0.0323970764875412,1.5020262002946265,1,1.0491756086139503e-07,3.861874375843399e-08,-1.082258904716582e-08,1.4600132214326322e-10,-4.483943494282272e-10,-9.7992582321167,1.0,-1.1881036598992978e-08,-3.882559551637854e-10,9.868526262835076e-08,1.772649731465184e+18,0.10000021010637283,0.10000021010637283,3.0,57.6048698425293,43.61082784765867,3.87686625326644,1772649731241042.0,-5.674101544173027e-07,-1.831954534736724e-07,-1.503235101699829,1.0,1.7726497312410422e+18,57.78650665283203,100632.4375,1013.25,1.772649731455806e+18,0.29341644048690796,0.021644804626703262,0.17985951900482178,1.7726497314558433e+18,8192.0,0.9999998807907104,0.0,0.0,0.0,0.0,0.0,0.0,1.7726497311987274e+18
2026-03-04T19:42:11.690+01:00,1772649731.691,7.279557507899881e-07,2.8903948532388313e-06,-0.2654702365398407,1.501112103462371,1,2.2273995625710086e-07,-5.7868181357889625e-09,-1.0196592903355395e-08,-3.4425145026273363e-12,-1.3270566590062316e-10,-9.803292274475098,1.0,-1.4976238915664908e-08,2.473578897266293e-09,9.701455638833067e-08,1.7726497316653686e+18,0.10000018030405045,0.10000018030405045,3.0,57.8963623046875,43.61082784765769,3.8768662532659883,1772649731434777.0,-5.67816755392414e-07,-2.624508113058255e-07,-1.502206563949585,1.0,1.772649731434777e+18,58.58407211303711,100622.8984375,1013.25,1.772649731653301e+18,0.29826825857162476,0.016333892941474915,0.17589876055717468,1.7726497316533115e+18,8192.0,0.9999998807907104,0.0,0.0,0.0,0.0,0.0,0.0,1.7726497315553608e+18
2026-03-04T19:42:11.885+01:00,1772649731.886,5.988780458210385e-07,2.801996288326336e-06,-0.5902032852172852,0.9693820476535602,1,1.4380407264980022e-05,-6.002107056701789e-06,-3.5454323210615257e-07,-1.0999969823899391e-08,-2.6697078325810253e-08,-4.861138343811035,1.0,-4.801224804396043e-07,2.9369391540967626e-07,7.894382036965908e-08,1.7726497318656192e+18,0.10000015795230865,0.10000015795230865,3.0,58.224029541015625,43.610827847656566,3.876866253265172,1772649731653306.0,-5.705668399968999e-07,-3.572854154754168e-07,-1.5011404752731323,1.0,1.7726497316533059e+18,57.98457717895508,100630.078125,1013.25,1.7726497318592133e+18,0.2998034358024597,0.006134759169071913,0.16375812888145447,1.7726497318592346e+18,8192.0,0.9999998807907104,0.0,0.0,0.0,0.0,0.0,0.0,1.7726497317271114e+18
2026-03-04T19:42:12.088+01:00,1772649732.088,4.278020639958413e-07,2.6046154744108208e-06,-0.7141342163085938,0.001902865772695641,1,9.768723430170212e-06,-1.600696691639314e-06,-1.368068893725649e-07,-3.7073226710759855e-09,-2.370433271892125e-08,-4.987174987792969,1.0,-8.385713954339735e-07,3.131641790332651e-07,5.4970826113276416e-08,1.772649732067405e+18,0.10000014305114746,0.10000014305114746,3.0,58.509803771972656,43.610827847655514,3.876866253264136,1772649731859222.0,-5.97172856942052e-07,-5.359006536309607e-07,-1.0010844469070435,1.0,1.7726497318592228e+18,58.576148986816406,100623.0078125,1013.25,1.7726497320698957e+18,0.3029232621192932,0.013558739796280861,0.1737070530653,1.7726497320699075e+18,8192.0,0.9999998807907104,0.0,0.0,0.0,0.0,0.0,0.0,1.7726497319285514e+18
2026-03-04T19:42:12.287+01:00,1772649732.287,1.4836349748748034e-07,2.1356788693083217e-06,-0.6243137717247009,0.7822365760869693,1,1.1058134987251833e-05,-1.8539531083661132e-06,3.4703066376096103e-07,-1.1866838178775652e-08,-7.002563506830484e-08,-12.362017631530762,1.0,-4.542283136288461e-07,-2.165910117923886e-09,5.2482949541854396e-08,1.7726497322690532e+18,0.10000012814998627,0.10000012814998627,3.0,58.597904205322266,43.61082784765467,3.876866253262896,1772649732048904.0,-1.0674579016267671e-06,-1.4673297528133844e-06,-0.07664096355438232,1.0,1.7726497320489044e+18,58.92211151123047,100618.875,1013.25,1.7726497322655398e+18,0.29196229577064514,0.015152188949286938,0.17328374087810516,1.7726497322655608e+18,8192.0,0.9999998807907104,0.0,0.0,0.0,0.0,0.0,0.0,1.7726497321305661e+18
2026-03-04T19:42:12.491+01:00,1772649732.492,-8.451317512481182e-08,1.4919847899363958e-06,-0.5155347585678101,0.42477226259198037,1,1.0878348803089466e-05,3.585681042750366e-06,2.6451182577602594e-08,4.493344363254437e-09,-1.3652398322960835e-08,-10.873602867126465,1.0,-1.4493686251171312e-07,-1.725633183013997e-07,6.763254845054689e-08,1.7726497324704847e+18,0.10000011324882507,0.10000011324882507,3.0,58.52440643310547,43.61082784765155,3.876866253255992,1772649732265548.0,-1.4355152870848542e-06,-2.881560021705809e-06,0.7835204601287842,1.0,1.7726497322655483e+18,58.1562385559082,100628.0390625,1013.25,1.7726497324670574e+18,0.29538866877555847,0.007936154492199421,0.17948217689990997,1.7726497324670766e+18,8192.0,0.9999998807907104,0.0,0.0,0.0,0.0,0.0,0.0,1.772649732445729e+18
2026-03-04T19:42:12.692+01:00,1772649732.692,-2.1086852086682484e-07,6.860776124995027e-07,-0.447976678609848,0.23846411710486334,1,2.9869477657484822e-05,2.892026486733812e-06,-1.6648323608592364e-08,2.7272761826679925e-09,-2.829692391514982e-08,-10.492600440979004,1.0,-6.027097469996079e-07,-1.3240683927051577e-07,6.629335302932304e-08,1.7726497326698734e+18,0.10000009834766388,0.10000009834766388,3.0,58.445465087890625,43.610827847650036,3.8768662532508484,1772649732446012.0,-9.592976084604743e-07,-3.8126152048789663e-06,0.4528694450855255,1.0,1.7726497324460127e+18,58.32789993286133,100625.96875,1013.25,1.7726497326607565e+18,0.30033841729164124,0.01561194472014904,0.17741282284259796,1.7726497326607693e+18,8192.0,0.9999998807907104,0.0,0.0,0.0,0.0,0.0,0.0,1.7726497326394332e+18
2026-03-04T19:42:12.895+01:00,1772649732.895,0.0005953983636572957,-4.6919080887164455e-07,-0.4209097921848297,0.43627598443405713,1,-8.71631254995009e-06,-0.5962410569190979,3.495876299552947e-08,-0.0011679204180836678,1.7254166095881374e-08,-16.273256301879883,0.9982271790504456,4.275313472135167e-07,-0.059519436210393906,1.3951260768862994e-07,1.772649732871903e+18,0.10000008344650269,0.10000008344650269,3.0,58.34352111816406,43.61082784764827,3.8768662532369573,1772649732660762.0,-3.509493922138063e-07,-5.0061012188962195e-06,0.24272222816944122,1.0,1.7726497326607626e+18,57.73896789550781,100633.0234375,1013.25,1.772649732871785e+18,0.3088633120059967,0.014814430847764015,0.13827060163021088,1.7726497328718088e+18,8192.0,0.9999998807907104,0.0,0.0,0.0,0.0,0.0,0.0,1.7726497328291443e+18
2026-03-04T19:42:13.092+01:00,1772649733.092,0.045054152607917786,-1.8932025795947993e-06,-0.5618433356285095,0.7605752237916619,1,3.2354710128856823e-06,-0.05373368412256241,-1.6038170542742591e-06,-0.0008419360965490341,-2.032586010614068e-08,-7.12837028503418,0.9964554309844971,2.3250173342148628e-07,-0.08412247151136398,7.847563665563939e-08,1.7726497330717635e+18,0.10000007599592209,0.10000007599592209,3.0,58.32450485229492,43.61082785798598,3.87686625322224,1772649732850656.0,0.052766744047403336,-7.791926691425033e-06,-0.29128527641296387,1.0,1.7726497328506563e+18,58.481075286865234,100624.1328125,1013.25,1.7726497330709115e+18,0.3167407214641571,0.006019805558025837,0.11775115132331848,1.7726497330709266e+18,8192.0,0.9999998807907104,0.0,0.0,0.0,0.0,0.0,0.0,1.7726497328291443e+18
2026-03-04T19:42:13.292+01:00,1772649733.292,0.15330642461776733,-3.1021143058751477e-06,-0.6673759818077087,0.7598764622986405,1,2.5197205104632303e-05,0.13249067962169647,-1.1888624840139528e-06,-0.0020453445613384247,-7.582350747270539e-08,-9.3384428024292,0.9968808889389038,-6.279659601204912e-07,-0.07892104238271713,-1.5142798304168537e-07,1.7726497332724675e+18,0.10000006854534149,0.10000006854534149,3.0,58.464115142822266,43.61082826298945,3.8768662532058658,1772649733049926.0,0.3695616126060486,-5.967187007627217e-06,-0.7169801592826843,1.0,1.7726497330499264e+18,58.2777214050293,100626.5625,1013.25,1.7726497332691556e+18,0.32479557394981384,0.0152369923889637,0.1257803589105606,1.7726497332691779e+18,8192.0,0.9999998807907104,0.0,0.0,0.0,0.0,0.0,0.0,1.7726497331793042e+18
2026-03-04T19:42:13.498+01:00,1772649733.498,0.2875978648662567,-4.202038326184265e-06,-0.7205816507339478,0.9787155412312398,1,1.6531315850443207e-05,0.14766913652420044,5.499856570168049e-07,-0.0054314034059643745,-7.839872750992072e-09,-9.474031448364258,0.9978917241096497,-4.4583705971490417e-07,-0.0649007260799408,-1.796375244111914e-07,1.7726497334788867e+18,0.1000000610947609,0.1000000610947609,3.0,58.569580078125,43.61082926260342,3.8768662531906872,1772649733269166.0,0.6687064170837402,-5.870998393220361e-06,-0.35434070229530334,1.0,1.7726497332691666e+18,58.42033386230469,100624.875,1013.25,1.7726497334758226e+18,0.31880253553390503,0.0072876522317528725,0.14284519851207733,1.7726497334758408e+18,8192.0,0.9999998807907104,0.0,0.0,0.0,0.0,0.0,0.0,1.7726497333789517e+18
2026-03-04T19:42:13.698+01:00,1772649733.699,0.4956974685192108,-5.461128239403479e-06,-0.765722930431366,1.188284752650291,1,3.064819611608982e-05,0.12549665570259094,1.1431513939896831e-06,-0.0055432748049497604,-8.866442726684909e-07,-9.646710395812988,0.9986629486083984,-1.5704034694863367e-07,-0.05169389024376869,-2.6792559282284856e-08,1.7726497336756672e+18,0.1000000536441803,0.1000000536441803,3.0,58.62544631958008,43.61083058763838,3.8768662531762197,1772649733453883.0,0.92432701587677,-5.723427420889493e-06,-0.2525774836540222,1.0,1.7726497334538836e+18,58.37279510498047,100625.4296875,1013.25,1.7726497336786642e+18,0.3166297674179077,0.015991291031241417,0.1411949247121811,1.7726497336786816e+18,8192.0,0.9999998807907104,0.0,0.0,0.0,0.0,0.0,0.0,1.772649733580622e+18
2026-03-04T19:42:13.892+01:00,1772649733.893,0.754679262638092,-6.482038315880345e-06,-0.8009078502655029,1.363215001685824,1,-1.7582189684617333e-05,0.1003788560628891,2.999800017278176e-07,-0.011649882420897484,1.7550021880197164e-08,-9.718299865722656,0.999173104763031,1.2271433433852508e-06,-0.04065805673599243,1.273893985853647e-07,1.7726497338725947e+18,0.1000000461935997,0.1000000461935997,3.0,58.66926574707031,43.61083249933752,3.8768662531607943,1772649733657624.0,1.159260869026184,-4.89950707560638e-06,-0.18473708629608154,1.0,1.772649733657625e+18,58.77421951293945,100620.640625,1013.25,1.7726497338634486e+18,0.3111931085586548,0.019672544673085213,0.1525258868932724,1.7726497338634621e+18,8192.0,0.9999998807907104,0.0,0.0,0.0,0.0,0.0,0.0,1.7726497338204874e+18
2026-03-04T19:42:14.092+01:00,1772649734.092,1.0555557012557983,-6.730714176228503e-06,-0.8304730653762817,1.5020758522919844,1,-2.5986353193729883e-06,0.07729732990264893,-4.924363565805834e-07,-0.012515144422650337,5.809128111877726e-08,-9.740925788879395,0.9995009303092957,3.399101444756525e-07,-0.03159213811159134,8.710857457572274e-08,1.7726497340760228e+18,0.1000000387430191,0.1000000387430191,3.0,58.70009231567383,43.61083456818101,3.8768662531494913,1772649733843129.0,1.3317850828170776,-3.3048329441953683e-06,-0.15128660202026367,1.0,1.7726497338431299e+18,59.06736373901367,100617.1484375,1013.25,1.77264973407903e+18,0.3032498061656952,0.009890813380479813,0.15724946558475494,1.7726497340790477e+18,8192.0,0.9999998807907104,0.0,0.0,0.0,0.0,0.0,0.0,1.7726497338204874e+18
2026-03-04T19:42:14.293+01:00,1772649734.294,1.3737642765045166,-6.526434390252689e-06,-0.8551751375198364,1.6094159243699704,1,7.237975978569011e-07,0.05966724827885628,-5.823121682624333e-07,-0.016638612374663353,-1.6866925633962637e-09,-9.747895240783691,0.9996955394744873,8.36150917393752e-08,-0.02467471733689308,2.2653576792208696e-08,1.7726497342761457e+18,0.1000000387430191,0.1000000387430191,3.0,58.73018264770508,43.61083730817232,3.876866253146148,1772649734058055.0,1.487318515777588,4.074285300248448e-07,-0.1284332275390625,1.0,1.772649734058056e+18,58.9432373046875,100618.6171875,1013.25,1.7726497342609283e+18,0.3140943944454193,0.014105614274740219,0.15762898325920105,1.772649734281908e+18,8192.0,0.9999998807907104,0.0,0.0,0.0,0.0,0.0,0.0,1.772649734187522e+18
2026-03-04T19:42:14.501+01:00,1772649734.501,1.608898401260376,-6.30264321443974e-06,-0.8706246614456177,1.6941459683443207,1,1.4813634834354161e-06,0.04563174024224281,-3.295055250873702e-07,-0.018623897805809975,-1.468063892673399e-09,-9.750750541687012,0.9998152852058411,7.176134797504119e-09,-0.019219577312469482,-2.4873770598787814e-08,1.7726497344802312e+18,0.1000000387430191,0.1000000387430191,3.0,58.75455856323242,43.61084012165331,3.8768662531485814,1772649734260936.0,1.5997734069824219,1.446427290829888e-06,-0.11259811371564865,1.0,1.772649734260937e+18,59.096412658691406,100616.7734375,1013.25,1.7726497344709102e+18,0.308259516954422,0.005745117552578449,0.16083864867687225,1.7726497344709458e+18,8192.0,0.9999998807907104,0.0,0.0,0.0,0.0,0.0,0.0,1.772649734389094e+18
2026-03-04T19:42:14.703+01:00,1772649734.705,2.0191872119903564,-5.878854153706925e-06,-0.893437922000885,1.7576710951208285,1,1.7483951069152681e-06,0.035448621958494186,-1.4541730308792467e-07,-0.01999048888683319,-7.820856851026292e-09,-9.751777648925781,0.9998853802680969,-2.3366697021742766e-08,-0.015143616124987602,-4.722029345316514e-08,1.7726497346787046e+18,0.1000000387430191,0.1000000387430191,3.0,58.77129364013672,43.610842413076824,3.8768662531515825,1772649734449878.0,1.6813222169876099,1.7500079820820247e-06,-0.09978039562702179,1.0,1.7726497344498788e+18,59.10697937011719,100616.6484375,1013.25,1.772649734669263e+18,0.30434107780456543,0.018753107637166977,0.1536474972963333,1.772649734669287e+18,8192.0,0.9999998807907104,0.0,0.0,0.0,0.0,0.0,0.0,1.7726497345963773e+18
2026-03-04T19:42:14.900+01:00,1772649734.901,2.3795828819274902,-5.510773917194456e-06,-0.9064827561378479,1.764154488339759,1,-7.118563189578708e-06,1.0012917518615723,4.6884494508958596e-07,-0.017321301624178886,2.0684971957507514e-08,-11.81419849395752,0.9989861249923706,-8.406536267102638e-08,0.04501901939511299,-4.505798045784104e-08,1.772649734878711e+18,0.1000000387430191,0.1000000387430191,3.0,58.795135498046875,43.610846311325155,3.8768662531571363,1772649734669274.0,1.7537882328033447,1.8421163758830517e-06,-0.08650858700275421,1.0,1.7726497346692746e+18,58.74516677856445,100620.9921875,1013.25,1.772649734872433e+18,0.2823706865310669,0.010867349803447723,0.20181263983249664,1.772649734872442e+18,8192.0,0.9999998807907104,0.0,0.0,0.0,0.0,0.0,0.0,1.772649734792444e+18
2026-03-04T19:42:15.103+01:00,1772649735.103,2.7324862480163574,-5.19908326168661e-06,-0.93465656042099,1.4517244866320882,1,9.90724743132887e-07,0.39490199089050293,2.3274277793916553e-07,-0.012960180640220642,-1.6488002074765973e-09,-10.109695434570312,0.9938379526138306,-2.8137452545706765e-07,0.1108430027961731,-1.0037552122810212e-08,1.7726497350816184e+18,0.1000000387430191,0.1000000387430191,3.0,58.80681610107422,43.610848754484344,3.876866253160577,1772649734851434.0,1.7867763042449951,1.7589785556992865e-06,0.031118866056203842,1.0,1.7726497348514348e+18,58.560302734375,100623.1875,1013.25,1.7726497350874473e+18,0.2501266300678253,0.018335973843932152,0.23946808278560638,1.7726497350874708e+18,8192.0,0.9999998807907104,0.0,0.0,0.0,0.0,0.0,0.0,1.7726497350658135e+18
2026-03-04T19:42:15.301+01:00,1772649735.302,2.978332757949829,-5.098737801745301e-06,-0.9782873392105103,0.9826857392407259,1,3.831661388176144e-08,0.021153302863240242,-8.577208632232214e-08,-0.006165251135826111,-2.843592028511921e-11,-9.176109313964844,0.9920077919960022,-6.169440069925258e-08,0.126177117228508,-2.8523194472995783e-08,1.7726497352833713e+18,0.1000000387430191,0.1000000387430191,3.0,58.824615478515625,43.610851852851276,3.8768662531645464,1772649735066123.0,1.459539771080017,9.65274807640526e-07,-0.2350006252527237,1.0,1.772649735066123e+18,58.613121032714844,100622.5625,1013.25,1.7726497352832768e+18,0.2457430064678192,0.0073183029890060425,0.23410068452358246,1.772649735283297e+18,8192.0,0.9999998807907104,0.0,0.0,0.0,0.0,0.0,0.0,1.7726497350658135e+18
2026-03-04T19:42:15.511+01:00,1772649735.512,3.1221988201141357,-5.0817980081774294e-06,-0.9944889545440674,0.5110188713001814,1,8.573553600399464e-08,-0.11334967613220215,-2.0165520808745896e-08,-0.0042215436697006226,-2.0444375081751787e-09,-9.424084663391113,0.9927520751953125,-5.1321059402198443e-08,0.12018070369958878,-3.467738807216847e-08,1.7726497354857152e+18,0.1000000387430191,0.1000000387430191,3.0,58.88082504272461,43.610854787097416,3.8768662531664115,1772649735283284.0,0.9635204672813416,1.6460127483242104e-07,-0.15345533192157745,1.0,1.772649735283284e+18,59.212615966796875,100615.3828125,1013.25,1.7726497354892378e+18,0.25306403636932373,0.017152149230241776,0.2329729199409485,1.7726497354892552e+18,8192.0,0.9999998807907104,0.0,0.0,0.0,0.0,0.0,0.0,1.7726497354109775e+18
2026-03-04T19:42:15.708+01:00,1772649735.709,3.1954612731933594,-5.098346264276188e-06,-0.9842814207077026,0.13700272617667303,1,3.973070406004808e-08,-0.18110059201717377,-4.774771866777883e-08,-0.0037956908345222473,-8.340137469531328e-10,-9.732067108154297,0.9944372177124023,-5.532920610562542e-08,0.10533110052347183,-3.612950649767299e-08,1.7726497356843784e+18,0.1000000387430191,0.1000000387430191,3.0,58.89472961425781,43.61085604286606,3.876866253166589,1772649735467212.0,0.5398668050765991,-1.0447655185430449e-08,-5.5559794418513775e-05,1.0,1.7726497354672128e+18,58.89834213256836,100619.1484375,1013.25,1.7726497356874637e+18,0.25600937008857727,0.01571684330701828,0.2352667599916458,1.7726497356875686e+18,8192.0,0.9999998807907104,0.0,0.0,0.0,0.0,0.0,0.0,1.7726497356244362e+18
2026-03-04T19:42:15.905+01:00,1772649735.906,3.1741018295288086,-5.1143128985131625e-06,-0.964941143989563,0.3636494623219162,1,-2.9259994335006922e-05,-0.29078900814056396,2.0057818801433314e-06,-1.70096755027771e-05,8.975223408924649e-08,-9.845866203308105,0.9948657155036926,1.9537474145181477e-06,0.10120389610528946,-3.0581529131268326e-07,1.7726497358865216e+18,0.10000003129243851,0.10000003129243851,3.0,58.88271713256836,43.61085662475585,3.8768662531663507,1772649735666292.0,0.10260047763586044,-1.9035523735055904e-07,0.11316714435815811,1.0,1.7726497356662927e+18,58.520687103271484,100623.6640625,1013.25,1.77264973587424e+18,0.25396856665611267,0.010010692290961742,0.24342454969882965,1.7726497358742674e+18,8192.0,0.9999998807907104,0.0,0.0,0.0,0.0,0.0,0.0,1.7726497356244362e+18
2026-03-04T19:42:16.104+01:00,1772649736.105,3.0762460231781006,-4.212907242617803e-06,-0.9580113291740417,0.7253377531467228,1,-4.035674919578014e-06,-0.1965806782245636,6.816516133767436e-07,0.0010956265032291412,5.260259072770168e-08,-9.895585060119629,0.9969619512557983,1.334224322135924e-07,0.07788995653390884,-3.9905593496314395e-08,1.772649736085733e+18,0.10000003129243851,0.10000003129243851,3.0,58.86503219604492,43.610856415964705,3.876866253166186,1772649735874248.0,-0.34428051114082336,1.9845520000671968e-06,0.02007903903722763,1.0,1.772649735874249e+18,59.14923095703125,100616.1640625,1013.25,1.772649736081533e+18,0.2626200020313263,0.007107854355126619,0.2258489578962326,1.7726497360815457e+18,8192.0,0.9999998807907104,0.0,0.0,0.0,0.0,0.0,0.0,1.772649736016974e+18
2026-03-04T19:42:16.309+01:00,1772649736.309,2.9081838130950928,-2.805169060593471e-06,-0.947223424911499,1.0099178985810673,1,5.2453228818194475e-06,-0.14386457204818726,2.678305861536501e-07,0.006453649140894413,-8.925169936446764e-09,-9.971007347106934,0.9981768131256104,-3.313613774480473e-07,0.06035829707980156,3.9279786534507366e-08,1.7726497362920855e+18,0.10000003129243851,0.10000003129243851,3.0,58.857093811035156,43.610855413808075,3.876866253178994,1772649736081537.0,-0.7187627553939819,6.939926151972031e-06,0.052975401282310486,1.0,1.7726497360815378e+18,58.60255813598633,100622.6953125,1013.25,1.7726497362828227e+18,0.274162620306015,0.017924781888723373,0.2073134332895279,1.7726497362828506e+18,8192.0,0.9999998807907104,0.0,0.0,0.0,0.0,0.0,0.0,1.7726497362180613e+18
2026-03-04T19:42:16.512+01:00,1772649736.513,2.720412492752075,-1.6871786101546604e-06,-0.9395881295204163,1.222930354470128,1,-1.2034419114570483e-06,-0.12170656025409698,-9.245204068974999e-08,0.009608253836631775,1.9628068059773796e-09,-9.963427543640137,0.9988704323768616,-2.7929715429309e-07,0.04751826077699661,4.712430623499131e-08,1.7726497364880474e+18,0.10000003129243851,0.10000003129243851,3.0,58.84859085083008,43.610854232211466,3.8768662531926927,1772649736261723.0,-0.9752082228660583,6.958483027119655e-06,0.051704902201890945,1.0,1.7726497362617234e+18,58.87721633911133,100619.4140625,1013.25,1.7726497364941e+18,0.28069716691970825,0.00791109073907137,0.20115143060684204,1.7726497364941222e+18,8192.0,0.9999998807907104,0.0,0.0,0.0,0.0,0.0,0.0,1.7726497364170903e+18
2026-03-04T19:42:16.708+01:00,1772649736.708,2.419114589691162,-4.3942344518654863e-07,-0.9341983795166016,1.3934972934838261,1,-1.4344469434490748e-07,-0.09263195097446442,-2.4994153591251234e-07,0.012594057247042656,1.9821033703237845e-10,-9.930198669433594,0.9993067383766174,-2.624423416364152e-07,0.03722977638244629,2.8921885331101294e-08,1.7726497366889027e+18,0.10000003129243851,0.10000003129243851,3.0,58.83946990966797,43.61085226977488,3.8768662532090703,1772649736472859.0,-1.2109711170196533,5.747671366407303e-06,0.03183288872241974,1.0,1.77264973647286e+18,58.73460388183594,100621.1171875,1013.25,1.7726497366917745e+18,0.2815437614917755,0.011861462146043777,0.19510993361473083,1.772649736691791e+18,8192.0,0.9999998807907104,0.0,0.0,0.0,0.0,0.0,0.0,1.772649736670529e+18
2026-03-04T19:42:16.907+01:00,1772649736.908,2.124149799346924,4.132189701522293e-07,-0.9339323043823242,1.5258971506543586,1,3.931532432943641e-07,-0.07483293861150742,-2.0922003329815198e-07,0.014961576089262962,-1.4450614038707954e-09,-9.892305374145508,0.9995737671852112,-2.5787568347368506e-07,0.02919505164027214,7.4343011746691445e-09,1.772649736889313e+18,0.10000003129243851,0.10000003129243851,3.0,58.834617614746094,43.61084996028635,3.876866253222465,1772649736670771.0,-1.3822901248931885,4.719681328424485e-06,0.010673712939023972,1.0,1.7726497366707712e+18,58.56294250488281,100623.1640625,1013.25,1.7726497368949322e+18,0.2905644476413727,0.02119651436805725,0.19649726152420044,1.772649736894952e+18,8192.0,0.9999998807907104,0.0,0.0,0.0,0.0,0.0,0.0,1.772649736670529e+18
2026-03-04T19:42:17.112+01:00,1772649737.113,1.7943899631500244,1.0733828048614669e-06,-0.936835527420044,1.6293679480668168,1,3.144126736742692e-08,-0.05901596322655678,-1.1657231624440101e-07,0.017324740067124367,-2.7964297544258443e-11,-9.861732482910156,0.9997391104698181,-2.1602140520826651e-07,0.022843012586236,-8.486284563957724e-09,1.7726497370923387e+18,0.10000003129243851,0.10000003129243851,3.0,58.833858489990234,43.61084732727323,3.876866253233422,1772649736873909.0,-1.5188088417053223,3.6827082112722564e-06,-0.007139493711292744,1.0,1.7726497368739098e+18,58.59727478027344,100622.7421875,1013.25,1.7726497370831677e+18,0.2801828682422638,0.01357183326035738,0.1969350129365921,1.77264973708306e+18,8192.0,0.9999998807907104,0.0,0.0,0.0,0.0,0.0,0.0,1.7726497370247514e+18
2026-03-04T19:42:17.310+01:00,1772649737.31,1.561950445175171,1.4031668342795456e-06,-0.9400117993354797,1.6943039313962929,1,7.030747838143725e-06,-0.04447208344936371,-2.8934785234469018e-08,0.01907745562493801,-2.283435662775446e-09,-9.832534790039062,0.9998377561569214,1.0344483047930453e-09,0.018013324588537216,-1.8451510541694915e-08,1.7726497372912164e+18,0.10000003129243851,0.10000003129243851,3.0,58.83628463745117,43.61084449490643,3.8768662532416873,1772649737083172.0,-1.6265373229980469,2.6306286144972546e-06,-0.019630851224064827,1.0,1.7726497370831729e+18,59.114898681640625,100616.5625,1013.25,1.772649737290859e+18,0.28962579369544983,0.015085209161043167,0.18072044849395752,1.7726497372907343e+18,8192.0,0.9999998807907104,0.0,0.0,0.0,0.0,0.0,0.0,1.7726497372232773e+18
2026-03-04T19:42:17.509+01:00,1772649737.51,1.1041096448898315,1.9233330021961592e-06,-0.9474501609802246,1.7683806725278275,1,3.496207057196443e-07,-0.033382680267095566,1.492229628752284e-08,0.020430365577340126,-5.346048048693319e-10,-9.817056655883789,0.9998987913131714,-4.012323628899139e-08,0.014230718836188316,-1.8184863392889383e-08,1.7726497374915786e+18,0.10000003129243851,0.10000003129243851,3.0,58.840576171875,43.610841626735734,3.8768662532473903,1772649737244701.0,-1.6919630765914917,2.0421252884261776e-06,-0.026037773117423058,1.0,1.7726497372447014e+18,58.92475128173828,100618.8515625,1013.25,1.772649737488426e+18,0.2954215705394745,0.018433209508657455,0.17702966928482056,1.7726497374883584e+18,8192.0,0.9999998807907104,0.0,0.0,0.0,0.0,0.0,0.0,1.7726497374211077e+18
2026-03-04T19:42:17.711+01:00,1772649737.711,0.756026566028595,2.277372004755307e-06,-0.9533237814903259,1.8159495983582132,1,4.242508921947774e-08,-0.026638709008693695,2.0341046180760713e-08,0.021488409489393234,-1.6324053220273527e-10,-9.803829193115234,0.9999362826347351,-3.673196857789662e-08,0.011292464099824429,-1.5899470184876918e-08,1.7726497376922168e+18,0.10000003129243851,0.10000003129243851,3.0,58.84609603881836,43.61083855842812,3.8768662532521994,1772649737442366.0,-1.7554926872253418,1.9484994027152425e-06,-0.02949306182563305,1.0,1.7726497374423667e+18,58.52861022949219,100623.5859375,1013.25,1.7726497376828396e+18,0.29023534059524536,0.01127353310585022,0.18765981495380402,1.7726497376827395e+18,8192.0,0.9999998807907104,0.0,0.0,0.0,0.0,0.0,0.0,1.7726497376277402e+18
2026-03-04T19:42:17.913+01:00,1772649737.913,0.5048397779464722,2.51097890213714e-06,-0.9574120044708252,1.8401490708625938,1,2.3751587718834344e-07,-1.7210443019866943,8.957105279705502e-09,-0.024230824783444405,3.585379770854047e-09,-9.84897518157959,0.9999157190322876,-4.990119251147007e-08,-0.012982905842363834,-1.3150637023784384e-08,1.7726497378533268e+18,0.10000003129243851,0.10000003129243851,3.0,58.852481842041016,43.61083515422231,3.876866253257077,1772649737682844.0,-1.81388521194458,1.74754325144022e-06,-0.030211322009563446,1.0,1.7726497376828442e+18,58.83232116699219,100619.9375,1013.25,1.7726497378959877e+18,0.3079043924808502,0.01854780688881874,0.17534023523330688,1.7726497378958917e+18,8192.0,0.9999998807907104,0.0,0.0,0.0,0.0,0.0,0.0,1.7726497378200558e+18
2026-03-04T19:42:18.112+01:00,1772649738.112,0.041441258043050766,3.015023139596451e-06,-0.987636387348175,1.563323589487054,1,-1.4988193470344413e-05,-0.7780984044075012,-3.96329255636374e-07,0.011392634361982346,8.974799925454136e-08,-10.18156623840332,0.9946804642677307,1.0061962996132934e-07,-0.10300858318805695,-9.58528048045082e-08,1.77264973809247e+18,0.10000003129243851,0.10000003129243851,3.0,58.85784912109375,43.610832087187745,3.876866253261016,1772649737841329.0,-1.8418241739273071,1.6399918649767642e-06,-0.007081551011651754,1.0,1.772649737841329e+18,59.05944061279297,100617.2265625,1013.25,1.7726497380858893e+18,0.3243638873100281,0.006093141622841358,0.12184155732393265,1.7726497380858125e+18,8192.0,0.9999998807907104,0.0,0.0,0.0,0.0,0.0,0.0,1.7726497380856502e+18
2026-03-04T19:42:18.314+01:00,1772649738.315,-0.22727417945861816,3.552340331225423e-06,-1.038286805152893,1.107157430782008,1,-1.972971404029522e-05,-0.26396849751472473,1.8098815246503364e-07,0.006700620055198669,8.800714113021968e-08,-9.139143943786621,0.9916741847991943,-1.7965399479180633e-07,-0.1287727952003479,-1.5491926319555205e-07,1.772649738294623e+18,0.10000003129243851,0.10000003129243851,3.0,58.880340576171875,43.61082864496058,3.8768662532659577,1772649738085892.0,-1.5568515062332153,2.636833414726425e-06,-0.24793101847171783,1.0,1.7726497380858929e+18,58.58407211303711,100622.90625,1013.25,1.7726497382882286e+18,0.3289353847503662,0.009053364396095276,0.09706111252307892,1.7726497382880228e+18,8192.0,0.9999998807907104,0.0,0.0,0.0,0.0,0.0,0.0,1.7726497382878362e+18
2026-03-04T19:42:18.521+01:00,1772649738.521,-0.396890252828598,3.978704626206309e-06,-1.0622658729553223,0.6055634329537944,1,-3.8297912396956235e-06,0.07484922558069229,1.8590944250718167e-07,0.00246255099773407,1.1473559879959794e-08,-9.301036834716797,0.9919114112854004,-2.3218483136133727e-07,-0.12693196535110474,-1.36037058950933e-07,1.7726497384976023e+18,0.10000003129243851,0.10000003129243851,3.0,58.93083572387695,43.6108261435691,3.876866253272453,1772649738257640.0,-1.164964199066162,2.6231198262394173e-06,-0.23903721570968628,1.0,1.7726497382576407e+18,58.74781036376953,100620.9609375,1013.25,1.772649738485256e+18,0.3398507237434387,0.008610865101218224,0.09027792513370514,1.7726497385063432e+18,8192.0,0.9999998807907104,0.0,0.0,0.0,0.0,0.0,0.0,1.7726497382878362e+18
2026-03-04T19:42:18.727+01:00,1772649738.728,-0.4679715931415558,4.2185488382529e-06,-1.0580859184265137,0.2394976407606666,1,8.738668384467019e-07,0.16135279834270477,5.654441537217281e-08,0.003792315721511841,-1.907517344079679e-08,-9.568099021911621,0.9932465553283691,-1.8096434928338567e-07,-0.11602312326431274,-1.2132336735248828e-07,1.7726497386613637e+18,0.10000003129243851,0.10000003129243851,3.0,58.95071029663086,43.610825168750345,3.8768662532756557,1772649738431977.0,-0.752266526222229,1.911542767629726e-06,-0.08201902359724045,1.0,1.7726497384319777e+18,59.326175689697266,100614.0546875,1013.25,1.7726497387074652e+18,0.33069249987602234,0.023621398955583572,0.10300344228744507,1.7726497387073206e+18,8192.0,0.9999998807907104,0.0,0.0,0.0,0.0,0.0,0.0,1.7726497386250895e+18
2026-03-04T19:42:18.925+01:00,1772649738.926,-0.47610655426979065,0.001153685268945992,-1.036567211151123,0.19462619672108458,1,-0.0368930920958519,0.2677624523639679,-0.04192063584923744,0.008029866963624954,-0.0005205348134040833,-9.730276107788086,0.994600772857666,0.10217654705047607,0.014300956390798092,0.011171037331223488,1.772649738863432e+18,0.10000003129243851,0.10000003129243851,3.0,58.958473205566406,43.61082364421409,3.876866253281741,1772649738646407.0,-0.25557979941368103,1.1433907047830871e-06,0.08131232112646103,1.0,1.7726497386464072e+18,58.388641357421875,100625.25,1013.25,1.7726497389107694e+18,0.29418814182281494,0.041116662323474884,0.17270636558532715,1.7726497389106757e+18,8192.0,0.9999998807907104,0.0,0.0,0.0,0.0,0.0,0.0,1.7726497388265756e+18
2026-03-04T19:42:19.121+01:00,1772649739.122,-0.4430903494358063,0.03795776888728142,-1.0088351964950562,0.46167430914339574,1,0.18985183537006378,2.611773729324341,-0.10697396844625473,0.06179558485746384,-0.006961643695831299,-7.94705057144165,0.9834257364273071,0.12745580077171326,0.12820231914520264,0.013893465511500835,1.7726497390657098e+18,0.10000003129243851,0.10000003129243851,3.0,58.9366569519043,43.61082356248156,3.876866267520317,1772649738848454.0,0.13435477018356323,0.050733163952827454,0.09932976961135864,1.0,1.772649738848455e+18,58.502201080322266,100623.8984375,1013.25,1.7726497390656996e+18,0.2634989023208618,0.06170165166258812,0.20985838770866394,1.7726497390447388e+18,8192.0,0.9999998807907104,0.0,0.0,0.0,0.0,0.0,0.0,1.7726497390230612e+18
2026-03-04T19:42:19.318+01:00,1772649739.318,-0.42316877841949463,0.1283906102180481,-0.9524710774421692,0.7731003012563025,1,-0.5940520763397217,-0.9078910946846008,-0.16528016328811646,-0.024557635188102722,0.01288679987192154,-10.717318534851074,0.98942631483078,0.10867378115653992,0.09604855626821518,0.0005097517860122025,1.77264973926837e+18,0.10000003129243851,0.10000003129243851,3.0,58.908512115478516,43.610823866470355,3.8768667349597705,1772649739044725.0,0.24890460073947906,0.3209143877029419,0.14701130986213684,1.0,1.7726497390447252e+18,58.76365661621094,100620.7734375,1013.25,1.7726497392623575e+18,0.26001396775245667,0.060140110552310944,0.22456885874271393,1.7726497392623724e+18,8192.0,0.9999998807907104,0.0,0.0,0.0,0.0,0.0,0.0,1.772649739219785e+18
2026-03-04T19:42:19.518+01:00,1772649739.518,-0.44469785690307617,0.27346983551979065,-0.8952021598815918,0.9501556790211363,1,0.10101234912872314,1.44980788230896,-0.11528214067220688,0.06359796971082687,-0.009708933532238007,-13.915559768676758,0.9949747323989868,0.04313074052333832,-0.08737579733133316,-0.023031877353787422,1.772649739471251e+18,0.10000003129243851,0.10000003129243851,3.0,58.8499755859375,43.61082403777985,3.8768679148353113,1772649739241246.0,-0.024913713335990906,0.6437130570411682,0.29344016313552856,1.0,1.7726497392412462e+18,58.750450134277344,100620.921875,1013.25,1.7726497394528893e+18,0.3248969614505768,0.04992210865020752,0.11672203242778778,1.772649739452905e+18,8192.0,0.9999998807907104,0.0,0.0,0.0,0.0,0.0,0.0,1.7726497394099768e+18
2026-03-04T19:42:19.719+01:00,1772649739.72,-0.38651373982429504,0.5302498936653137,-0.8875736594200134,1.2294912664917452,1,-0.051910705864429474,0.3848738372325897,0.10525668412446976,0.008880075067281723,-0.007855409756302834,-10.417820930480957,0.9988072514533997,0.046020932495594025,-0.005309775471687317,-0.015428248792886734,1.7726497396749386e+18,0.10000003129243851,0.10000003129243851,3.0,58.78299331665039,43.61082384245309,3.8768700320227674,1772649739452896.0,0.05273708701133728,0.8974029421806335,0.2894144058227539,1.0,1.7726497394528965e+18,58.731964111328125,100621.140625,1013.25,1.77264973966008e+18,0.30374640226364136,0.03407931700348854,0.1702471226453781,1.7726497396601114e+18,8192.0,0.9999998807907104,0.0,0.0,0.0,0.0,0.0,0.0,1.772649739596616e+18
2026-03-04T19:42:19.928+01:00,1772649739.93,-0.3148750364780426,0.768837034702301,-0.9238733649253845,1.392902592158414,1,-0.08865662664175034,0.07626804709434509,0.11391943693161011,0.0009984232019633055,-0.010195087641477585,-9.628413200378418,0.9991217851638794,0.03946186229586601,0.013992697931826115,-0.0016215189825743437,1.7726497398759288e+18,0.10000003129243851,0.10000003129243851,3.0,58.78553771972656,43.610824328752145,3.8768726492388272,1772649739660091.0,0.3670312166213989,1.1438963413238525,-0.1727810651063919,1.0,1.7726497396600916e+18,58.65537643432617,100622.046875,1013.25,1.7726497398699384e+18,0.291860431432724,0.033547356724739075,0.1820955127477646,1.772649739869961e+18,8192.0,0.9999998807907104,0.0,0.0,0.0,0.0,0.0,0.0,1.772649739596616e+18
2026-03-04T19:42:20.125+01:00,1772649740.126,-0.2486502230167389,1.0462273359298706,-0.9482120275497437,1.5196280595637635,1,-0.10667745769023895,-0.007322522345930338,0.026502160355448723,-0.0008636841084808111,-0.012586874887347221,-9.711816787719727,0.9992576837539673,0.03454055264592171,0.016009734943509102,0.005896496586501598,1.7726497400801485e+18,0.10000003129243851,0.10000003129243851,3.0,58.821651458740234,43.61082496443336,3.876875530938368,1772649739848916.0,0.364995539188385,1.3170394897460938,-0.1547006070613861,1.0,1.7726497398489165e+18,58.6685791015625,100621.9140625,1013.25,1.772649740065146e+18,0.29733195900917053,0.018027974292635918,0.18158648908138275,1.7726497400651625e+18,8192.0,0.9999998807907104,0.0,0.0,0.0,0.0,0.0,0.0,1.772649739944831e+18
2026-03-04T19:42:20.325+01:00,1772649740.326,-0.19820570945739746,1.3253138065338135,-0.9617841243743896,1.62581835125228,1,-0.08318602293729782,-0.025697633624076843,-0.03607003018260002,-0.0010913999285548925,-0.016026750206947327,-9.741812705993652,0.9995386600494385,0.02647652104496956,0.014051489531993866,0.004902708809822798,1.7726497402832548e+18,0.10000003129243851,0.10000003129243851,3.0,58.84856414794922,43.61082561789148,3.876879267554069,1772649740065153.0,0.30345672369003296,1.4776344299316406,-0.08638164401054382,1.0,1.7726497400651533e+18,58.51276397705078,100623.765625,1013.25,1.772649740268223e+18,0.2938084006309509,0.008954055607318878,0.17779983580112457,1.7726497402682365e+18,8192.0,0.9999998807907104,0.0,0.0,0.0,0.0,0.0,0.0,1.7726497401458655e+18
2026-03-04T19:42:20.523+01:00,1772649740.523,-0.15713271498680115,1.6240955591201782,-0.9713054299354553,1.7068978594923083,1,-0.0570363886654377,-0.026049017906188965,-0.0402153916656971,-0.0009776955703273416,-0.018741384148597717,-9.768549919128418,0.9997413158416748,0.019647227600216866,0.011450451798737049,0.0005803664680570364,1.772649740484748e+18,0.10000003129243851,0.10000003129243851,3.0,58.862056732177734,43.610826070417936,3.876882728801177,1772649740247240.0,0.2478611171245575,1.588841199874878,-0.05973987281322479,1.0,1.7726497402472404e+18,58.824398040771484,100620.046875,1013.25,1.7726497404667044e+18,0.28797537088394165,0.018559575080871582,0.17512032389640808,1.772649740466725e+18,8192.0,0.9999998807907104,0.0,0.0,0.0,0.0,0.0,0.0,1.7726497403538834e+18
2026-03-04T19:42:20.724+01:00,1772649740.725,-0.11267559975385666,2.0693161487579346,-0.9809139966964722,1.7676523543531235,1,-0.038324110209941864,-0.02204069122672081,-0.012476874515414238,-0.0007529116701334715,-0.020934877917170525,-9.767073631286621,0.9998449087142944,0.014950529672205448,0.009055636823177338,-0.002175736241042614,1.7726497406865708e+18,0.10000003129243851,0.10000003129243851,3.0,58.87306594848633,43.61082650211641,3.8768871832781815,1772649740466714.0,0.19053417444229126,1.689534068107605,-0.041757725179195404,1.0,1.772649740466715e+18,58.3939208984375,100625.1953125,1013.25,1.7726497406865613e+18,0.3009018003940582,0.01547055970877409,0.17524826526641846,1.7726497406653463e+18,8192.0,0.9999998807907104,0.0,0.0,0.0,0.0,0.0,0.0,1.772649740555019e+18
2026-03-04T19:42:20.928+01:00,1772649740.928,-0.0869889110326767,2.424454689025879,-0.9863497614860535,1.7810412206854433,1,-1.1259807348251343,-0.005518704187124968,0.003886457299813628,-0.00024463923182338476,0.011937241069972515,-11.304778099060059,0.9993917346000671,-0.034007057547569275,0.007502646651118994,-0.0018571101827546954,1.7726497408885033e+18,0.10000003129243851,0.10000003129243851,3.0,58.8803596496582,43.610826805512446,3.8768914273689368,1772649740665335.0,0.149122416973114,1.7555698156356812,-0.031093265861272812,1.0,1.7726497406653356e+18,59.099056243896484,100616.7421875,1013.25,1.7726497408795146e+18,0.2964920103549957,0.0036374912597239017,0.17940495908260345,1.7726497408795333e+18,8192.0,0.9999998807907104,0.0,0.0,0.0,0.0,0.0,0.0,1.7726497407630548e+18
2026-03-04T19:42:21.128+01:00,1772649741.129,-0.06819368153810501,2.749964475631714,-1.024021029472351,1.5045017049021732,1,-0.34167569875717163,-0.0017388291889801621,0.0015695770271122456,-4.6287430450320244e-05,-0.006979342550039291,-10.019842147827148,0.9946668148040771,-0.10287077724933624,0.00737604359164834,-0.0010709005873650312,1.7726497410895237e+18,0.10000003129243851,0.10000003129243851,3.0,58.88612365722656,43.61082705857691,3.876896152578635,1772649740879520.0,0.11352260410785675,1.7827023267745972,-0.05279335379600525,1.0,1.7726497408795208e+18,59.04887771606445,100617.34375,1013.25,1.7726497410835428e+18,0.3035801351070404,-0.02621547505259514,0.18607667088508606,1.772649741083562e+18,8192.0,0.9999998807907104,0.0,0.0,0.0,0.0,0.0,0.0,1.772649741020212e+18
2026-03-04T19:42:21.337+01:00,1772649741.337,-0.05556757375597954,2.996769905090332,-1.0738962888717651,1.0599519704194684,1,-0.04656432569026947,-0.004453612957149744,0.0006377511308528483,-1.15162692964077e-05,-0.007821507751941681,-9.245924949645996,0.9926313161849976,-0.12096207588911057,0.007119219750165939,-0.0008015490020625293,1.772649741291627e+18,0.10000003129243851,0.10000003129243851,3.0,58.924949645996094,43.610827236015616,3.876900372308859,1772649741083550.0,0.07953973114490509,1.487970232963562,-0.28225773572921753,1.0,1.7726497410835507e+18,58.9511604309082,100618.5234375,1013.25,1.7726497412883553e+18,0.29258671402931213,-0.03548833727836609,0.17867667973041534,1.7726497412883694e+18,8192.0,0.9999998807907104,0.0,0.0,0.0,0.0,0.0,0.0,1.7726497412250944e+18
2026-03-04T19:42:21.540+01:00,1772649741.541,-0.04788381606340408,3.1628265380859375,-1.0978924036026,0.5943456749268187,1,0.08808571845293045,-0.007887371815741062,0.00026497215731069446,-0.0002120576100423932,-0.004791475832462311,-9.329931259155273,0.9929758310317993,-0.11813639104366302,0.006499096751213074,-0.0007029405678622425,1.7726497414936937e+18,0.10000003129243851,0.10000003129243851,3.0,58.973365783691406,43.61082734606284,3.876903333525286,1772649741267391.0,0.053397051990032196,1.0961140394210815,-0.2066049575805664,1.0,1.7726497412673915e+18,58.86665344238281,100619.5390625,1013.25,1.7726497414786824e+18,0.29791468381881714,-0.025034891441464424,0.18388088047504425,1.7726497414786954e+18,8192.0,0.9999998807907104,0.0,0.0,0.0,0.0,0.0,0.0,1.7726497414151606e+18
2026-03-04T19:42:21.735+01:00,1772649741.735,-0.04459649324417114,3.250859022140503,-1.094881296157837,0.1908369082278536,1,0.15962205827236176,-0.010636333376169205,0.00012449329369701445,-0.0002642133040353656,-0.004103232175111771,-9.608479499816895,0.9944283366203308,-0.10526668280363083,0.005549406632781029,-0.000656453485134989,1.7726497416960553e+18,0.10000003129243851,0.10000003129243851,3.0,58.99888229370117,43.610827421912035,3.876905601946031,1772649741478688.0,0.026104319840669632,0.626436710357666,-0.03252074122428894,1.0,1.7726497414786885e+18,58.771575927734375,100620.6640625,1013.25,1.7726497416960445e+18,0.2904317378997803,-0.024945080280303955,0.17299789190292358,1.772649741674992e+18,8192.0,0.9999998807907104,0.0,0.0,0.0,0.0,0.0,0.0,1.7726497414151606e+18
2026-03-04T19:42:21.928+01:00,1772649741.929,-0.04603206366300583,3.2583577632904053,-1.0670067071914673,0.2669842760901866,1,0.10458489507436752,-0.04026835411787033,0.00439731078222394,-0.0012003271840512753,-0.002539806067943573,-9.807169914245605,0.9955798983573914,-0.09390290081501007,0.0017407054547220469,-0.0001364204363198951,1.7726497418975603e+18,0.10000003129243851,0.10000003129243851,3.0,58.99227523803711,43.61082744777074,3.8769066221987067,1772649741674983.0,0.0029729583766311407,0.20563095808029175,0.09037913382053375,1.0,1.7726497416749834e+18,59.051517486572266,100617.3203125,1013.25,1.7726497418826368e+18,0.3028010129928589,-0.02684539556503296,0.17749758064746857,1.7726497418826565e+18,8192.0,0.9999998807907104,0.0,0.0,0.0,0.0,0.0,0.0,1.7726497417663734e+18
2026-03-04T19:42:22.147+01:00,1772649742.148,-0.04956508055329323,3.18623685836792,-1.0402058362960815,0.6001683694393688,1,0.1398223340511322,-0.010939270257949829,0.0017542479326948524,-0.0002910151379182935,-0.0011568926274776459,-9.943079948425293,0.9967570900917053,-0.0804676041007042,-0.0003261306555941701,0.00040980521589517593,1.7726497420991788e+18,0.10000003129243851,0.10000003129243851,3.0,58.96828079223633,43.61082743463598,3.87690663789568,1772649741882644.0,-0.015692370012402534,-0.204859659075737,0.12791208922863007,1.0,1.7726497418826445e+18,58.800628662109375,100620.3125,1013.25,1.7726497420991683e+18,0.3052682876586914,-0.018215874210000038,0.1723148673772812,1.7726497420781852e+18,8192.0,0.9999998807907104,0.0,0.0,0.0,0.0,0.0,0.0,1.772649741966955e+18
2026-03-04T19:42:22.334+01:00,1772649742.336,-0.05340295657515526,3.0463204383850098,-1.0112656354904175,0.8908800394133076,1,0.14004328846931458,-0.0010077138431370258,-0.002704241778701544,-2.4043634766712785e-05,0.002358228899538517,-10.033294677734375,0.9978229999542236,-0.06594287604093552,-0.0008078095270320773,0.0003758908133022487,1.7726497423017185e+18,0.10000003129243851,0.10000003129243851,3.0,58.940250396728516,43.610827401476946,3.8769057191720204,1772649742078175.0,-0.020017649978399277,-0.5476211309432983,0.14764565229415894,1.0,1.7726497420781757e+18,59.030391693115234,100617.5703125,1013.25,1.7726497422987364e+18,0.3053562045097351,-0.0020004920661449432,0.17133912444114685,1.7726497422987515e+18,8192.0,0.9999998807907104,0.0,0.0,0.0,0.0,0.0,0.0,1.7726497421694162e+18
2026-03-04T19:42:22.545+01:00,1772649742.546,-0.056561920791864395,2.8576440811157227,-0.9876518845558167,1.1270627835514184,1,0.12063354253768921,0.0010972794843837619,-0.003245697822421789,2.839760054484941e-05,0.005860321689397097,-10.042441368103027,0.9986072182655334,-0.05275361239910126,-0.0007937811897136271,4.698094926425256e-05,1.7726497425026985e+18,0.10000003129243851,0.10000003129243851,3.0,58.908531188964844,43.610827363644766,3.8769037643069475,1772649742298742.0,-0.017485354095697403,-0.8769024014472961,0.1326523721218109,1.0,1.772649742298743e+18,58.89570236206055,100619.171875,1013.25,1.7726497425026885e+18,0.30561119318008423,-0.007077647373080254,0.1729094386100769,1.7726497424816835e+18,8192.0,0.9999998807907104,0.0,0.0,0.0,0.0,0.0,0.0,1.7726497423716232e+18
2026-03-04T19:42:22.736+01:00,1772649742.736,-0.05900353193283081,2.638204574584961,-0.9712525606155396,1.31755161238618,1,0.09791218489408493,0.0014225741615518928,-0.0011378300841897726,3.850372740998864e-05,0.009650900959968567,-10.006993293762207,0.9991334676742554,-0.041614532470703125,-0.0006696833879686892,-0.0001850245171226561,1.7726497427058486e+18,0.10000003129243851,0.10000003129243851,3.0,58.88676452636719,43.61082733733412,3.87690152422907,1772649742481674.0,-0.014442299492657185,-1.1002376079559326,0.1030190959572792,1.0,1.7726497424816745e+18,58.9802131652832,100618.1640625,1013.25,1.7726497426938156e+18,0.30537980794906616,-0.00548793887719512,0.17718273401260376,1.7726497426938312e+18,8192.0,0.9999998807907104,0.0,0.0,0.0,0.0,0.0,0.0,1.77264974257864e+18
2026-03-04T19:42:22.936+01:00,1772649742.936,-0.06152468919754028,2.297410726547241,-0.9584460258483887,1.466690500335397,1,0.07774458825588226,0.0012592897983267903,0.0008148984052240849,2.623768523335457e-05,0.013635649345815182,-9.959085464477539,0.9994649887084961,-0.0327010415494442,-0.000533448823262006,-0.00018770262249745429,1.7726497429084982e+18,0.10000003129243851,0.10000003129243851,3.0,58.86886978149414,43.61082731285093,3.8768983578964034,1772649742693822.0,-0.011244025081396103,-1.3060355186462402,0.06521309167146683,1.0,1.7726497426938227e+18,58.795345306396484,100620.375,1013.25,1.772649742896506e+18,0.3061484098434448,-0.0038447475526481867,0.1741640716791153,1.7726497428965268e+18,8192.0,0.9999998807907104,0.0,0.0,0.0,0.0,0.0,0.0,1.77264974283278e+18
2026-03-04T19:42:23.138+01:00,1772649743.139,-0.0630205050110817,2.002093553543091,-0.9543210864067078,1.581688711604068,1,0.061181992292404175,0.0010126623092219234,0.001260352204553783,2.9421495128190145e-05,0.01596338115632534,-9.910993576049805,0.9996690154075623,-0.025723567232489586,-0.0004163597186561674,-6.799163384130225e-05,1.772649743109185e+18,0.10000003129243851,0.10000003129243851,3.0,58.858863830566406,43.61082729465354,3.876894885293865,1772649742896514.0,-0.008760305121541023,-1.4586066007614136,0.03410140797495842,1.0,1.772649742896514e+18,58.88249588012695,100619.34375,1013.25,1.7726497431001871e+18,0.3029622733592987,0.0036690242122858763,0.17360062897205353,1.772649743100206e+18,8192.0,0.9999998807907104,0.0,0.0,0.0,0.0,0.0,0.0,1.77264974283278e+18
2026-03-04T19:42:23.336+01:00,1772649743.337,-0.06420417875051498,1.6842119693756104,-0.9538193941116333,1.671370836710392,1,0.04772762954235077,0.0007922929362393916,0.0006177722243592143,1.719134525046684e-05,0.018782634288072586,-9.87334156036377,0.9997954964637756,-0.02022373117506504,-0.0003229243156965822,3.253907198086381e-05,1.7726497433111393e+18,0.10000003129243851,0.10000003129243851,3.0,58.85441207885742,43.610827280435224,3.876891053303281,1772649743100195.0,-0.006793992128223181,-1.5771830081939697,0.010657645761966705,1.0,1.7726497431001953e+18,58.8428840637207,100619.8125,1013.25,1.77264974330213e+18,0.3049621880054474,-0.0006321193650364876,0.18134649097919464,1.772649743302147e+18,8192.0,0.9999998807907104,0.0,0.0,0.0,0.0,0.0,0.0,1.7726497431849303e+18
2026-03-04T19:42:23.547+01:00,1772649743.547,-0.06509183347225189,1.366888403892517,-0.9556106328964233,1.7406186574814957,1,0.03733949363231659,0.0006221029325388372,-0.00012658430205192417,3.4795866667991504e-06,0.02129928022623062,-9.842082023620605,0.9998725056648254,-0.015967540442943573,-0.00025116634787991643,5.391252489062026e-05,1.7726497435132488e+18,0.10000003129243851,0.10000003129243851,3.0,58.853851318359375,43.61082727049748,3.876887419602194,1772649743281117.0,-0.0054124388843774796,-1.659711480140686,-0.0037368247285485268,1.0,1.7726497432811172e+18,59.00926208496094,100617.828125,1013.25,1.7726497434976287e+18,0.3088798224925995,-0.00903911143541336,0.17249096930027008,1.7726497434976443e+18,8192.0,0.9999998807907104,0.0,0.0,0.0,0.0,0.0,0.0,1.7726497433794376e+18
2026-03-04T19:42:23.747+01:00,1772649743.748,-0.06578850001096725,1.0416913032531738,-0.958645761013031,1.7941300554780628,1,0.028832118958234787,0.0004842909693252295,-0.00038581693661399186,1.4057977750780992e-05,0.02201375924050808,-9.824082374572754,0.9999203085899353,-0.012623999267816544,-0.00019541758229024708,2.231118196505122e-05,1.772649743716311e+18,0.10000003129243851,0.10000003129243851,3.0,58.85591125488281,43.61082726122967,3.8768828630455974,1772649743497636.0,-0.004127584397792816,-1.7359248399734497,-0.014233277179300785,1.0,1.772649743497636e+18,58.92211151123047,100618.875,1013.25,1.7726497437132718e+18,0.3115086257457733,0.005244408268481493,0.18289512395858765,1.7726497437132882e+18,8192.0,0.9999998807907104,0.0,0.0,0.0,0.0,0.0,0.0,1.7726497435826655e+18
2026-03-04T19:42:23.948+01:00,1772649743.948,-0.06637228280305862,0.6869837045669556,-0.9612471461296082,1.6855966077813107,1,0.27596092224121094,0.00018177562742494047,-0.00023156819224823266,8.266259101219475e-06,0.009275589138269424,-14.478182792663574,0.9953733682632446,0.0960824266076088,-0.00017582860891707242,8.134419658745173e-06,1.7726497439190008e+18,0.10000003129243851,0.10000003129243851,3.0,58.85960006713867,43.61082725419958,3.8768781551039257,1772649743713278.0,-0.0031525762751698494,-1.7933342456817627,-0.019451167434453964,1.0,1.772649743713279e+18,58.708194732666016,100621.4375,1013.25,1.7726497439189916e+18,0.30297160148620605,0.046380091458559036,0.17418240010738373,1.7726497438977457e+18,8192.0,0.9999998807907104,0.0,0.0,0.0,0.0,0.0,0.0,1.7726497437822986e+18
2026-03-04T19:42:24.145+01:00,1772649744.145,-0.06687988340854645,0.3230067789554596,-1.024406909942627,1.2017353126748764,1,-0.13874538242816925,9.310254245065153e-05,-9.612316353013739e-05,2.315318852197379e-06,0.013875007629394531,-8.546010971069336,0.9921793341636658,0.12482068687677383,-0.00016441979096271098,-8.562782909393718e-07,1.772649744121098e+18,0.10000003129243851,0.10000003129243851,3.0,58.86015701293945,43.61082724950603,3.8768740327005564,1772649743897736.0,-0.002491418970748782,-1.7433075904846191,-0.0036496855318546295,1.0,1.7726497438977362e+18,58.478431701660156,100624.171875,1013.25,1.7726497441030003e+18,0.29792311787605286,0.0526697114109993,0.1693984419107437,1.7726497441030234e+18,8192.0,0.9999998807907104,0.0,0.0,0.0,0.0,0.0,0.0,1.772649743986848e+18
2026-03-04T19:42:24.350+01:00,1772649744.35,-0.06713738292455673,0.13865016400814056,-1.0601967573165894,0.7402854919598182,1,-0.144399031996727,0.00010887470853049308,-3.927255966118537e-05,2.6774578145705163e-06,0.00745236873626709,-9.174372673034668,0.9938405752182007,0.11081946641206741,-0.00015393050853163004,-8.18941043689847e-06,1.772649744321917e+18,0.10000003129243851,0.10000003129243851,3.0,58.923526763916016,43.61082724574641,3.8768702987745076,1772649744103009.0,-0.0016641963738948107,-1.2034056186676025,-0.3241187036037445,1.0,1.7726497441030098e+18,58.97492980957031,100618.234375,1013.25,1.7726497443219023e+18,0.3072279393672943,0.052567217499017715,0.1732000708580017,1.7726497443008788e+18,8192.0,0.9999998807907104,0.0,0.0,0.0,0.0,0.0,0.0,1.772649744194175e+18
2026-03-04T19:42:24.542+01:00,1772649744.543,-0.06729719787836075,0.02602316252887249,-1.063775658607483,0.34853046295524054,1,-0.1460414081811905,0.00017550952907186002,-1.5929550500004552e-05,4.689887646236457e-06,0.00463523343205452,-9.575758934020996,0.995235800743103,0.09749739617109299,-0.00013910360576119274,-1.1233525583520532e-05,1.7726497445249334e+18,0.10000003129243851,0.10000003129243851,3.0,58.962894439697266,43.61082724305756,3.8768676530277832,1772649744321913.0,-0.001044421922415495,-0.7376982569694519,-0.06182879954576492,1.0,1.7726497443219133e+18,58.9432373046875,100618.6171875,1013.25,1.7726497445219405e+18,0.2886504530906677,0.05859037861227989,0.17531754076480865,1.7726497445219625e+18,8192.0,0.9999998807907104,0.0,0.0,0.0,0.0,0.0,0.0,1.772649744389004e+18
2026-03-04T19:42:24.742+01:00,1772649744.743,-0.06737451255321503,-0.028775108978152275,-1.0428054332733154,0.12157981882747924,1,-0.1656946837902069,0.00023355976736638695,-6.0285387917247135e-06,4.592719051288441e-06,0.0032588373869657516,-9.812094688415527,0.9966426491737366,0.08187473565340042,-0.00011820721556432545,-1.2419582162692677e-05,1.7726497447254897e+18,0.10000003129243851,0.10000003129243851,3.0,58.962337493896484,43.61082724176863,3.8768664043813925,1772649744500909.0,-0.0005441242246888578,-0.3823899030685425,0.055229078978300095,1.0,1.7726497445009098e+18,58.74516677856445,100620.9765625,1013.25,1.7726497447194934e+18,0.3027367889881134,0.04301603138446808,0.16846759617328644,1.7726497447195128e+18,8192.0,0.9999998807907104,0.0,0.0,0.0,0.0,0.0,0.0,1.7726497446028111e+18
2026-03-04T19:42:24.947+01:00,1772649744.948,-0.06676189601421356,-0.005370560567826033,-1.0221961736679077,0.330645457275482,1,-0.15146276354789734,-0.37970465421676636,0.014551663771271706,-0.0016325237229466438,-0.00011431612074375153,-9.964890480041504,0.9968283772468567,0.06554388999938965,-0.04502129554748535,-0.0032129352912306786,1.7726497449263004e+18,0.10000003129243851,0.10000003129243851,3.0,58.94428634643555,43.61082724125255,3.876865900138509,1772649744698499.0,-3.22636442433577e-05,-0.028091713786125183,0.11745662242174149,1.0,1.7726497446984993e+18,58.96700668334961,100618.328125,1013.25,1.7726497449138847e+18,0.3161274194717407,0.03852050006389618,0.13828757405281067,1.7726497449139e+18,8192.0,0.9999998807907104,0.0,0.0,0.0,0.0,0.0,0.0,1.772649744850258e+18
2026-03-04T19:42:25.150+01:00,1772649745.15,-0.047370217740535736,0.06431557238101959,-1.008255124092102,0.6226566494508093,1,-0.12156431376934052,-0.0005132891237735748,0.047654446214437485,-0.0005350587889552116,0.001107802614569664,-9.846458435058594,0.996961236000061,0.05123225226998329,-0.05866998806595802,-0.0011872375616803765,1.7726497451312172e+18,0.10000003129243851,0.10000003129243851,3.0,58.92040252685547,43.610827254629314,3.8768662712706075,1772649744913892.0,0.04821142181754112,0.30429965257644653,0.07706107944250107,1.0,1.772649744913892e+18,58.795345306396484,100620.3984375,1013.25,1.772649745128193e+18,0.31721383333206177,0.02793426625430584,0.13958793878555298,1.7726497451282107e+18,8192.0,0.9999998807907104,0.0,0.0,0.0,0.0,0.0,0.0,1.772649744850258e+18
2026-03-04T19:42:25.343+01:00,1772649745.344,0.0320826955139637,0.21083001792430878,-0.986278235912323,0.8877991050265108,1,-0.09521948546171188,0.09086970239877701,0.03551243245601654,-0.0015905052423477173,-0.003863416612148285,-9.952524185180664,0.9977610111236572,0.040339551866054535,-0.053263287991285324,0.0029596046078950167,1.7726497453280184e+18,0.10000003129243851,0.10000003129243851,3.0,58.9052734375,43.610827491518144,3.876867278758623,1772649745107181.0,0.24056370556354523,0.5346476435661316,0.08761190623044968,1.0,1.772649745107182e+18,58.961727142333984,100618.390625,1013.25,1.7726497453159926e+18,0.316071093082428,0.030015846714377403,0.13788875937461853,1.7726497453160115e+18,8192.0,0.9999998807907104,0.0,0.0,0.0,0.0,0.0,0.0,1.7726497452021778e+18
2026-03-04T19:42:25.548+01:00,1772649745.548,0.13554398715496063,0.3572389483451843,-0.9703189134597778,1.1213141991206743,1,-0.07519935816526413,0.0961349830031395,-0.000173187829204835,-0.002985140308737755,-0.005374697037041187,-9.995015144348145,0.9985213279724121,0.03180675581097603,-0.04383961483836174,0.004650026094168425,1.77264974552727e+18,0.10000003129243851,0.10000003129243851,3.0,58.88582229614258,43.61082816138542,3.8768689178916906,1772649745316000.0,0.47596657276153564,0.7302519679069519,0.09253787994384766,1.0,1.772649745316001e+18,58.72140121459961,100621.2734375,1013.25,1.7726497455210854e+18,0.31526046991348267,0.023762978613376617,0.15754854679107666,1.772649745521097e+18,8192.0,0.9999998807907104,0.0,0.0,0.0,0.0,0.0,0.0,1.7726497454030395e+18
2026-03-04T19:42:25.751+01:00,1772649745.751,0.2749500870704651,0.5323585867881775,-0.9579305648803711,1.3084057168429506,1,-0.059696972370147705,0.08173402398824692,-0.022501952946186066,-0.0025572795420885086,-0.005451986566185951,-9.977551460266113,0.9990743398666382,0.025074297562241554,-0.034802742302417755,0.0032568753231316805,1.7726497457294326e+18,0.10000003129243851,0.10000003129243851,3.0,58.86835861206055,43.61082922902558,3.876870969698652,1772649745521090.0,0.6786465048789978,0.8815496563911438,0.07383935153484344,1.0,1.7726497455210908e+18,58.93003463745117,100618.7734375,1013.25,1.7726497457234053e+18,0.3097124993801117,0.016395729035139084,0.15768326818943024,1.7726497457234222e+18,8192.0,0.9999998807907104,0.0,0.0,0.0,0.0,0.0,0.0,1.7726497456057603e+18
2026-03-04T19:42:25.956+01:00,1772649745.956,0.4554065465927124,0.7430265545845032,-0.949996292591095,1.4610190135805639,1,-0.04727553948760033,0.06554172933101654,-0.020357519388198853,-0.004446171689778566,-0.007190357893705368,-9.93914794921875,0.9994349479675293,0.01969306357204914,-0.027225075289607048,0.0008678882149979472,1.7726497459345733e+18,0.10000003129243851,0.10000003129243851,3.0,58.85606384277344,43.61083061446415,3.8768733291698987,1772649745723412.0,0.8399420380592346,0.9985034465789795,0.046643972396850586,1.0,1.772649745723413e+18,59.143951416015625,100616.21875,1013.25,1.7726497459285343e+18,0.312050998210907,0.019491299986839294,0.14786745607852936,1.772649745928551e+18,8192.0,0.9999998807907104,0.0,0.0,0.0,0.0,0.0,0.0,1.7726497458095875e+18
2026-03-04T19:42:26.151+01:00,1772649746.152,0.6562418937683105,0.9667683243751526,-0.9470347166061401,1.576574991984558,1,-0.0374477244913578,0.051778919994831085,-0.00680394796654582,-0.0073533933609724045,-0.009540264494717121,-9.900150299072266,0.9996500611305237,0.015553700737655163,-0.02139454334974289,-0.0004974330659024417,1.7726497461328005e+18,0.10000003129243851,0.10000003129243851,3.0,58.84916305541992,43.61083228564941,3.8768759853656882,1772649745928541.0,0.9684247970581055,1.0908558368682861,0.020907077938318253,1.0,1.7726497459285412e+18,58.52861022949219,100623.5859375,1013.25,1.772649746129635e+18,0.302444726228714,0.020960170775651932,0.15762723982334137,1.7726497461296558e+18,8192.0,0.9999998807907104,0.0,0.0,0.0,0.0,0.0,0.0,1.7726497460157235e+18
2026-03-04T19:42:26.349+01:00,1772649746.349,0.9088927507400513,1.2393585443496704,-0.9479695558547974,1.6679059306169257,1,-0.02929478883743286,0.040559470653533936,0.003692039754241705,-0.0084795281291008,-0.010486416518688202,-9.864313125610352,0.9997842907905579,0.012237788178026676,-0.016769103705883026,-0.0005760928033851087,1.7726497463331748e+18,0.10000003129243851,0.10000003129243851,3.0,58.84700393676758,43.610834127283354,3.876878789568903,1772649746129642.0,1.0664201974868774,1.1610937118530273,0.0012814285000786185,1.0,1.7726497461296422e+18,58.95380401611328,100618.4765625,1013.25,1.772649746333064e+18,0.3069997727870941,0.01335489097982645,0.16056610643863678,1.772649746333079e+18,8192.0,0.9999998807907104,0.0,0.0,0.0,0.0,0.0,0.0,1.772649746219787e+18
2026-03-04T19:42:26.553+01:00,1772649746.553,1.1182538270950317,1.4606194496154785,-0.950770914554596,1.73967849812109,1,-0.02280576527118683,0.031655047088861465,0.005511198192834854,-0.009395303204655647,-0.01120024174451828,-9.838794708251953,0.9998669624328613,0.009640121832489967,-0.013158961199223995,-4.232444553053938e-05,1.772649746533813e+18,0.10000003129243851,0.10000003129243851,3.0,58.848201751708984,43.61083615133084,3.876881785837774,1772649746333071.0,1.1431515216827393,1.216029405593872,-0.012220922857522964,1.0,1.7726497463330708e+18,59.08056640625,100616.9765625,1013.25,1.7726497465336484e+18,0.29464036226272583,0.02126063033938408,0.16786733269691467,1.7726497465336653e+18,8192.0,0.9999998807907104,0.0,0.0,0.0,0.0,0.0,0.0,1.7726497464222817e+18
2026-03-04T19:42:26.757+01:00,1772649746.758,1.3463726043701172,1.6985524892807007,-0.9548027515411377,1.7948491249204206,1,-0.01753007061779499,0.02442561648786068,0.0018986727809533477,-0.010138286277651787,-0.011770026758313179,-9.819377899169922,0.999918520450592,0.00756871560588479,-0.010276957415044308,0.0003598586190491915,1.772649746739756e+18,0.10000003129243851,0.10000003129243851,3.0,58.85109329223633,43.61083804140663,3.8768845322288636,1772649746512644.0,1.1962494850158691,1.2540194988250732,-0.01949932426214218,1.0,1.772649746512644e+18,59.046234130859375,100617.375,1013.25,1.7726497467273682e+18,0.29922252893447876,0.022934043779969215,0.1754409372806549,1.7726497467273802e+18,8192.0,0.9999998807907104,0.0,0.0,0.0,0.0,0.0,0.0,1.772649746631599e+18
2026-03-04T19:42:26.965+01:00,1772649746.966,1.5971298217773438,1.9574209451675415,-0.9585193395614624,1.7535336619180026,1,-0.6198251247406006,0.6324426531791687,0.008218622766435146,-0.00832246895879507,-0.009724344126880169,-11.785296440124512,0.9980093240737915,-0.044910941272974014,0.04427346587181091,0.0005619379808194935,1.772649746950076e+18,0.10000003129243851,0.10000003129243851,3.0,58.856327056884766,43.61084064147673,3.876888256759049,1772649746748464.0,1.2495375871658325,1.2921186685562134,-0.024078039452433586,1.0,1.7726497467484644e+18,59.17828369140625,100615.8046875,1013.25,1.7726497469498862e+18,0.28188344836235046,-0.0090921800583601,0.1952238529920578,1.7726497469499013e+18,8192.0,0.9999998807907104,0.0,0.0,0.0,0.0,0.0,0.0,1.7726497468846477e+18
2026-03-04T19:42:27.159+01:00,1772649747.16,1.854190468788147,2.221672534942627,-0.9954482913017273,1.4263051337471966,1,-0.20336103439331055,0.21199247241020203,0.005767154973000288,-0.0061664581298828125,-0.007022280246019363,-9.824746131896973,0.9935353398323059,-0.08133809268474579,0.0791841596364975,0.0012500797165557742,1.772649747139374e+18,0.10000003129243851,0.10000003129243851,3.0,58.85852813720703,43.610842432395415,3.8768907966773227,1772649746906102.0,1.2563083171844482,1.2906616926193237,-0.015463361516594887,1.0,1.7726497469061023e+18,58.9432373046875,100618.609375,1013.25,1.7726497471241943e+18,0.2620784044265747,-0.028755534440279007,0.21114614605903625,1.7726497471452275e+18,8192.0,0.9999998807907104,0.0,0.0,0.0,0.0,0.0,0.0,1.772649747102674e+18
2026-03-04T19:42:27.359+01:00,1772649747.36,2.028120279312134,2.4001190662384033,-1.0434361696243286,0.9568752472056616,1,-0.010830581188201904,0.012852492742240429,0.002521495334804058,-0.0028312504291534424,-0.003208078444004059,-9.222872734069824,0.991897463798523,-0.09048135578632355,0.0891641154885292,0.0015592036070302129,1.7726497473399578e+18,0.10000003129243851,0.10000003129243851,3.0,58.89958572387695,43.610844672488845,3.8768939657981702,1772649747124200.0,0.9965818524360657,1.0227253437042236,-0.26931801438331604,1.0,1.7726497471242007e+18,58.919471740722656,100618.90625,1013.25,1.772649747330618e+18,0.2644214630126953,-0.021275324746966362,0.2289147973060608,1.7726497473306296e+18,8192.0,0.9999998807907104,0.0,0.0,0.0,0.0,0.0,0.0,1.772649747102674e+18
2026-03-04T19:42:27.565+01:00,1772649747.566,2.133455991744995,2.5084586143493652,-1.0614796876907349,0.4743529243871902,1,0.08140257000923157,-0.0846966803073883,0.0010513132438063622,-0.0013202130794525146,-0.0013886019587516785,-9.40405559539795,0.9926497936248779,-0.08609384298324585,0.0850374847650528,0.0017146009486168623,1.7726497475464975e+18,0.10000003129243851,0.10000003129243851,3.0,58.94706726074219,43.61084623214456,3.876896168039559,1772649747330623.0,0.6695730686187744,0.6873747110366821,-0.1568991243839264,1.0,1.7726497473306235e+18,58.44145965576172,100624.6171875,1013.25,1.7726497475395965e+18,0.2790655493736267,-0.020703215152025223,0.22859956324100494,1.772649747539614e+18,8192.0,0.9999998807907104,0.0,0.0,0.0,0.0,0.0,0.0,1.7726497474397386e+18
2026-03-04T19:42:27.757+01:00,1772649747.758,2.183242082595825,2.560594081878662,-1.0477466583251953,0.13018190209888914,1,0.13038772344589233,-0.1340787410736084,0.0006044537294656038,-0.00043492764234542847,-0.0004232823848724365,-9.7011079788208,0.9943653345108032,-0.07559822499752045,0.07429149746894836,0.0018260020297020674,1.7726497477416333e+18,0.10000003129243851,0.10000003129243851,3.0,58.96172332763672,43.61084711283587,3.876897415532262,1772649747518549.0,0.3641414940357208,0.37679964303970337,0.00035057892091572285,1.0,1.772649747518549e+18,58.53653335571289,100623.484375,1013.25,1.772649747738299e+18,0.26544368267059326,-0.011196950450539589,0.2099849134683609,1.7726497477383158e+18,8192.0,0.9999998807907104,0.0,0.0,0.0,0.0,0.0,0.0,1.772649747649971e+18
2026-03-04T19:42:27.958+01:00,1772649747.959,2.175248622894287,2.544628858566284,-1.027456283569336,0.327941428597343,1,0.10205385088920593,-0.11704661697149277,-0.0492754802107811,-0.0001319386065006256,0.00042742490768432617,-11.960143089294434,0.9949466586112976,-0.06634430587291718,-0.07412444800138474,0.013609293848276138,1.7726497479421486e+18,0.10000003129243851,0.10000003129243851,3.0,58.946746826171875,43.61084750070002,3.876897976297924,1772649747738304.0,0.025633614510297775,0.0324588306248188,0.12355045229196548,1.0,1.7726497477383045e+18,59.08320999145508,100616.9375,1013.25,1.7726497479420485e+18,0.32813701033592224,-0.016652876511216164,0.12803734838962555,1.7726497479420613e+18,8192.0,0.9999998807907104,0.0,0.0,0.0,0.0,0.0,0.0,1.772649747843753e+18
2026-03-04T19:42:28.164+01:00,1772649748.164,2.2059783935546875,2.4800028800964355,-1.0060333013534546,0.612663526055499,1,0.12321864813566208,0.3463761806488037,-0.11980106681585312,-0.0001669628545641899,0.0016767028719186783,-9.599004745483398,0.9964898228645325,-0.05359569936990738,-0.06422524899244308,0.0032846175599843264,1.7726497481443927e+18,0.10000003129243851,0.10000003129243851,3.0,58.92584228515625,43.61084742709029,3.8768977498412336,1772649747920982.0,0.026157928630709648,-0.2227151244878769,0.20483453571796417,1.0,1.7726497479209828e+18,58.94852066040039,100618.546875,1013.25,1.7726497481412163e+18,0.31592437624931335,-0.013920897617936134,0.13760361075401306,1.7726497481412396e+18,8192.0,0.9999998807907104,0.0,0.0,0.0,0.0,0.0,0.0,1.7726497480986903e+18
2026-03-04T19:42:28.362+01:00,1772649748.363,2.287794828414917,2.3659567832946777,-0.9878565669059753,0.9025589387441163,1,0.09508351236581802,0.14791634678840637,-0.060508716851472855,0.0022567790001630783,0.0006950842216610909,-9.94310188293457,0.9977831840515137,-0.0421455018222332,-0.05108388885855675,-0.006554722785949707,1.7726497483466424e+18,0.10000003129243851,0.10000003129243851,3.0,58.903411865234375,43.610847811311196,3.8768967373173773,1772649748141224.0,0.33532413840293884,-0.5061111450195312,0.0803159847855568,1.0,1.7726497481412242e+18,58.65537643432617,100622.0625,1013.25,1.7726497483435786e+18,0.31299465894699097,0.00855807214975357,0.14714950323104858,1.7726497483435986e+18,8192.0,0.9999998807907104,0.0,0.0,0.0,0.0,0.0,0.0,1.7726497483006546e+18
2026-03-04T19:42:28.561+01:00,1772649748.561,2.4303271770477295,2.1949820518493652,-0.9686046242713928,1.134615884611235,1,0.07829228043556213,0.11128438264131546,0.01897311955690384,-0.0036974288523197174,0.004967131651937962,-9.979570388793945,0.9985739588737488,-0.03345149755477905,-0.040762726217508316,-0.0083390474319458,1.7726497485450286e+18,0.10000003129243851,0.10000003129243851,3.0,58.884281158447266,43.61084863150479,3.87689522605073,1772649748343585.0,0.5627354383468628,-0.699526309967041,0.09133598953485489,1.0,1.7726497483435853e+18,58.85344696044922,100619.6875,1013.25,1.7726497485449234e+18,0.30413275957107544,0.006171973887830973,0.14967072010040283,1.772649748544943e+18,8192.0,0.9999998807907104,0.0,0.0,0.0,0.0,0.0,0.0,1.7726497483006546e+18
2026-03-04T19:42:28.763+01:00,1772649748.763,2.579195737838745,2.028120517730713,-0.957493782043457,1.32413311261168,1,0.06441027671098709,0.08353707939386368,0.05069194361567497,-0.005227368324995041,0.006583893205970526,-9.962894439697266,0.9991219639778137,-0.026577576994895935,-0.032093461602926254,-0.004356177989393473,1.7726497487449887e+18,0.10000003129243851,0.10000003129243851,3.0,58.86915969848633,43.61084967963507,3.876893509171806,1772649748523994.0,0.7305815815925598,-0.8403438329696655,0.0722227692604065,1.0,1.7726497485239946e+18,59.17300033569336,100615.8828125,1013.25,1.7726497487328778e+18,0.31773534417152405,0.013340882956981659,0.15412592887878418,1.7726497487328978e+18,8192.0,0.9999998807907104,0.0,0.0,0.0,0.0,0.0,0.0,1.7726497486488248e+18
2026-03-04T19:42:28.965+01:00,1772649748.965,2.784419298171997,1.806495189666748,-0.9502244591712952,1.4716658780441305,1,0.050593674182891846,0.06081583723425865,0.03339920938014984,-0.006551685277372599,0.00807539839297533,-9.933897018432617,0.9994646906852722,-0.021022995933890343,-0.025067823007702827,9.438991401111707e-05,1.7726497489455078e+18,0.10000003129243851,0.10000003129243851,3.0,58.85935974121094,43.61085078559874,3.8768917944398735,1772649748711851.0,0.8721716403961182,-0.9584232568740845,0.047039784491062164,1.0,1.7726497487118515e+18,59.15979766845703,100616.03125,1013.25,1.7726497489513393e+18,0.3152218461036682,0.002459767973050475,0.15803088247776031,1.7726497489513554e+18,8192.0,0.9999998807907104,0.0,0.0,0.0,0.0,0.0,0.0,1.7726497488465618e+18
2026-03-04T19:42:29.172+01:00,1772649749.173,2.9980309009552,1.5813153982162476,-0.948210597038269,1.5879859460648076,1,0.039549570530653,0.04729338735342026,0.0018115792190656066,-0.00769578805193305,0.009291036054491997,-9.892311096191406,0.9996731281280518,-0.016458095982670784,-0.01947931945323944,0.0018607436213642359,1.7726497491526382e+18,0.10000003129243851,0.10000003129243851,3.0,58.849971771240234,43.61085307159287,3.8768883918981607,1772649748951346.0,1.0111943483352661,-1.074163556098938,0.017847953364253044,1.0,1.7726497489513462e+18,58.977569580078125,100618.203125,1013.25,1.772649749155328e+18,0.31154194474220276,0.00038641225546598434,0.16545961797237396,1.772649749155346e+18,8192.0,0.9999998807907104,0.0,0.0,0.0,0.0,0.0,0.0,1.7726497490391032e+18
2026-03-04T19:42:29.366+01:00,1772649749.367,3.231445789337158,1.3389521837234497,-0.9495253562927246,1.6757197390099834,1,0.030154794454574585,0.03578488156199455,-0.01344203483313322,-0.008837997913360596,0.010313211940228939,-9.860440254211426,0.9997965097427368,-0.013022111728787422,-0.01536363735795021,0.0011466616997495294,1.772649749349906e+18,0.10000003129243851,0.10000003129243851,3.0,58.848453521728516,43.61085432023764,3.876886577714842,1772649749134236.0,1.0925709009170532,-1.1420261859893799,0.0006775110960006714,1.0,1.7726497491342362e+18,58.46258544921875,100624.3515625,1013.25,1.7726497493406415e+18,0.30171990394592285,0.006328206975013018,0.16312181949615479,1.7726497493405527e+18,8192.0,0.9999998807907104,0.0,0.0,0.0,0.0,0.0,0.0,1.7726497492346186e+18
2026-03-04T19:42:29.564+01:00,1772649749.564,3.4745757579803467,1.0890904664993286,-0.9528946280479431,1.745031100852152,1,0.023325644433498383,0.027783174067735672,-0.010851013474166393,-0.009007677435874939,0.010440399870276451,-9.835848808288574,0.9998744130134583,-0.010264730080962181,-0.012076785787940025,-0.00016971479635685682,1.7726497495507402e+18,0.10000003129243851,0.10000003129243851,3.0,58.84899139404297,43.61085633334951,3.8768836908838873,1772649749340645.0,1.164207100868225,-1.2018476724624634,-0.012469868175685406,1.0,1.7726497493406454e+18,58.58142852783203,100622.9453125,1013.25,1.772649749544721e+18,0.3063303232192993,0.017033400014042854,0.170796200633049,1.7726497495446518e+18,8192.0,0.9999998807907104,0.0,0.0,0.0,0.0,0.0,0.0,1.7726497494325125e+18
2026-03-04T19:42:29.773+01:00,1772649749.774,3.6002769470214844,0.9606367945671082,-0.9550391435623169,1.7836264647969986,1,0.020492246374487877,0.024617355316877365,-0.004407766740769148,-0.009525438770651817,0.010878525674343109,-9.82364273071289,0.999909520149231,-0.008713651448488235,-0.010226953774690628,-0.0007011163979768753,1.77264974968885e+18,0.10000003129243851,0.10000003129243851,3.0,58.85125732421875,43.61085810460429,3.876881177312573,1772649749453907.0,1.1960487365722656,-1.2284809350967407,-0.017135372385382652,1.0,1.7726497494539072e+18,58.99341583251953,100618.0078125,1013.25,1.772649749670841e+18,0.309690922498703,0.0169119480997324,0.1701970100402832,1.772649749761308e+18,8192.0,0.9999998807907104,0.0,0.0,0.0,0.0,0.0,0.0,1.7726497496278866e+18
2026-03-04T19:42:29.973+01:00,1772649749.974,3.9051473140716553,0.6505938768386841,-0.9596920609474182,1.7987628387999361,1,0.801025927066803,0.779315173625946,-0.004177073948085308,0.014899838715791702,-0.014406371861696243,-11.181436538696289,0.9994338750839233,0.024519942700862885,0.023025060072541237,-0.0007572243339382112,1.772649749894436e+18,0.10000003129243851,0.10000003129243851,3.0,58.855594635009766,43.61086048644985,3.8768778232242265,1772649749670847.0,1.2456634044647217,-1.270053505897522,-0.02230122499167919,1.0,1.7726497496708477e+18,58.731964111328125,100621.140625,1013.25,1.772649749888435e+18,0.2918791174888611,0.027220344170928,0.1832040399312973,1.7726497498884495e+18,8192.0,0.9999998807907104,0.0,0.0,0.0,0.0,0.0,0.0,1.7726497498248863e+18
2026-03-04T19:42:30.169+01:00,1772649750.169,4.131407260894775,0.4220840036869049,-0.9900453686714172,1.5111943520349556,1,0.23084862530231476,0.18067219853401184,-0.004677704535424709,-0.006277695298194885,0.006763987243175507,-9.992992401123047,0.9935405850410461,0.08117641508579254,0.0792824774980545,-0.001337223220616579,1.7726497501546588e+18,0.10000003129243851,0.10000003129243851,3.0,58.85971450805664,43.61086296125667,3.8768743602301328,1772649749888440.0,1.2660740613937378,-1.2832938432693481,-0.0248904749751091,1.0,1.7726497498884403e+18,59.231101989746094,100615.1796875,1013.25,1.7726497501545687e+18,0.274822473526001,0.045875221490859985,0.21669109165668488,1.7726497501544952e+18,8192.0,0.9999998807907104,0.0,0.0,0.0,0.0,0.0,0.0,1.7726497501543316e+18
2026-03-04T19:42:30.371+01:00,1772649750.372,4.368467807769775,0.18492795526981354,-1.0516823530197144,0.9261969285105469,1,0.07424569875001907,-0.004833463113754988,-0.0020170670468360186,-0.0027864277362823486,0.0028068944811820984,-9.252923011779785,0.9921532869338989,0.08960480242967606,0.0871780663728714,-0.001695228973403573,1.7726497503570957e+18,0.10000003129243851,0.10000003129243851,3.0,58.89274215698242,43.61086512657047,3.8768713510220634,1772649750090371.0,1.058310866355896,-1.0631933212280273,-0.2655845880508423,1.0,1.7726497500903716e+18,58.869293212890625,100619.515625,1013.25,1.772649750350914e+18,0.26336267590522766,0.055112406611442566,0.2168542444705963,1.7726497503508388e+18,8192.0,0.9999998807907104,0.0,0.0,0.0,0.0,0.0,0.0,1.772649750350671e+18
2026-03-04T19:42:30.574+01:00,1772649750.575,4.465219020843506,0.08986467123031616,-1.0631712675094604,0.46304886491004704,1,-0.06804563105106354,-0.08394965529441833,-0.0008907114970497787,-0.0007987245917320251,0.0007577724754810333,-9.417487144470215,0.9929231405258179,0.08507727831602097,0.08283837139606476,-0.0018251441651955247,1.7726497505565786e+18,0.10000003129243851,0.10000003129243851,3.0,58.941734313964844,43.61086677463872,3.876869079495151,1772649750292117.0,0.7492461204528809,-0.7465640306472778,-0.18538691103458405,1.0,1.7726497502921175e+18,58.890419006347656,100619.25,1013.25,1.7726497505442468e+18,0.26513075828552246,0.051399774849414825,0.22205065190792084,1.7726497505441725e+18,8192.0,0.9999998807907104,0.0,0.0,0.0,0.0,0.0,0.0,1.7726497505440128e+18
2026-03-04T19:42:30.774+01:00,1772649750.775,4.504344940185547,0.053855445235967636,-1.04856276512146,0.12606125558642953,1,-0.0850427895784378,-0.0799335390329361,-0.0013929931446909904,-0.00042552128434181213,0.00045243650674819946,-10.564366340637207,0.9947890043258667,0.07192108035087585,0.07224410027265549,-0.0017023069085553288,1.7726497507595292e+18,0.10000003129243851,0.10000003129243851,3.0,58.96299362182617,43.61086784935579,3.8768676164023326,1772649750493736.0,0.4274323880672455,-0.41667258739471436,-0.02249155379831791,1.0,1.7726497504937362e+18,58.8270378112793,100620.0,1013.25,1.772649750744038e+18,0.2647988796234131,0.03938576951622963,0.21604210138320923,1.772649750765049e+18,8192.0,0.9999998807907104,0.0,0.0,0.0,0.0,0.0,0.0,1.7726497507436882e+18
2026-03-04T19:42:30.974+01:00,1772649750.975,4.485861778259277,0.07560373842716217,-1.0294972658157349,0.37789465577401415,1,-0.10685943067073822,-0.09516121447086334,-0.02082144282758236,0.00014965608716011047,-0.00019574910402297974,-9.75603199005127,0.9957776665687561,0.0640096664428711,0.0657314583659172,-0.003017623443156481,1.772649750957769e+18,0.10000003129243851,0.10000003129243851,3.0,58.9532585144043,43.610868360240815,3.876866950901327,1772649750744042.0,0.047831613570451736,-0.030596241354942322,0.12015586346387863,1.0,1.772649750744042e+18,58.776859283447266,100620.6015625,1013.25,1.7726497509609364e+18,0.27064356207847595,0.04171333089470863,0.21224239468574524,1.7726497509609567e+18,8192.0,0.9999998807907104,0.0,0.0,0.0,0.0,0.0,0.0,1.7726497509391619e+18
2026-03-04T19:42:31.174+01:00,1772649751.175,4.4107465744018555,0.15357647836208344,-1.0046855211257935,0.7135270737928399,1,-0.10997119545936584,-0.11361270397901535,-0.007727029733359814,0.0015057921409606934,-0.0016622068360447884,-9.976387977600098,0.9970989227294922,0.05291947349905968,0.05451708287000656,-0.004609839059412479,1.772649751158017e+18,0.10000003129243851,0.10000003129243851,3.0,58.93284606933594,43.610868285453,3.8768670961417766,1772649750939390.0,-0.22870807349681854,0.24485120177268982,0.10237418860197067,1.0,1.772649750939391e+18,58.977569580078125,100618.1953125,1013.25,1.7726497511458621e+18,0.27858611941337585,0.04642154276371002,0.2133573293685913,1.7726497511457615e+18,8192.0,0.9999998807907104,0.0,0.0,0.0,0.0,0.0,0.0,1.7726497511454257e+18
2026-03-04T19:42:31.376+01:00,1772649751.377,4.299437522888184,0.2666524648666382,-0.9824870824813843,0.9866756274587696,1,-0.09545207768678665,-0.10067928582429886,0.01293781865388155,0.0028686337172985077,-0.003109137061983347,-10.032888412475586,0.9981288313865662,0.04257911071181297,0.043672624975442886,-0.00430059339851141,1.7726497513590313e+18,0.10000003129243851,0.10000003129243851,3.0,58.91011047363281,43.610867723483544,3.8768679055387416,1772649751145866.0,-0.478286474943161,0.48953816294670105,0.12338685989379883,1.0,1.772649751145866e+18,58.76629638671875,100620.75,1013.25,1.7726497513616868e+18,0.2849906384944916,0.024440446868538857,0.19741961359977722,1.772649751361704e+18,8192.0,0.9999998807907104,0.0,0.0,0.0,0.0,0.0,0.0,1.7726497513404385e+18
2026-03-04T19:42:31.578+01:00,1772649751.578,4.144205093383789,0.4231191873550415,-0.9642361998558044,1.2034596124353125,1,-0.07893077284097672,-0.08235068619251251,0.02043418399989605,0.004514123313128948,-0.0048829056322574615,-10.019076347351074,0.9988292455673218,0.0338560976088047,0.03446369990706444,-0.0024988760706037283,1.7726497515604787e+18,0.10000003129243851,0.10000003129243851,3.0,58.88617706298828,43.61086674271707,3.8768692802495344,1772649751340688.0,-0.6741971969604492,0.6816349029541016,0.10520970821380615,1.0,1.772649751340688e+18,58.4229736328125,100624.8359375,1013.25,1.772649751545135e+18,0.2852301597595215,0.023867128416895866,0.1957068294286728,1.7726497515661875e+18,8192.0,0.9999998807907104,0.0,0.0,0.0,0.0,0.0,0.0,1.7726497513404385e+18
2026-03-04T19:42:31.781+01:00,1772649751.781,3.9536266326904297,0.6145252585411072,-0.9525297284126282,1.3775018710013929,1,-0.06378120929002762,-0.06624642759561539,0.013783982023596764,0.006000472232699394,-0.006539418362081051,-9.980156898498535,0.9992756247520447,0.026753026992082596,0.027054961770772934,-0.0007174764177761972,1.77264975176162e+18,0.10000003129243851,0.10000003129243851,3.0,58.86684799194336,43.61086539544842,3.8768711508818545,1772649751545138.0,-0.8385747671127319,0.8433976769447327,0.07279349118471146,1.0,1.7726497515451387e+18,58.771575927734375,100620.6796875,1013.25,1.772649751755281e+18,0.28238508105278015,0.02365880087018013,0.18204377591609955,1.7726497517552087e+18,8192.0,0.9999998807907104,0.0,0.0,0.0,0.0,0.0,0.0,1.7726497516850598e+18
2026-03-04T19:42:31.986+01:00,1772649751.986,3.79740571975708,0.771169900894165,-0.9480469226837158,1.5124892044232554,1,-0.049482956528663635,-0.05100119858980179,0.0033650340046733618,0.007408482022583485,-0.00808345153927803,-9.935863494873047,0.9995513558387756,0.02110324427485466,0.02125449851155281,0.0001220361955347471,1.7726497519612544e+18,0.10000003129243851,0.10000003129243851,3.0,58.854305267333984,43.610863774877096,3.8768733919330924,1772649751755284.0,-0.9702725410461426,0.9734330177307129,0.03955257683992386,1.0,1.7726497517552845e+18,58.53389358520508,100623.5,1013.25,1.772649751958091e+18,0.2831997871398926,0.014727231115102768,0.18849903345108032,1.7726497519579965e+18,8192.0,0.9999998807907104,0.0,0.0,0.0,0.0,0.0,0.0,1.7726497518793065e+18
2026-03-04T19:42:32.177+01:00,1772649752.178,3.524860143661499,1.0441855192184448,-0.946438729763031,1.619574899694847,1,-0.039251722395420074,-0.04036226123571396,-0.0025665382854640484,0.008434977382421494,-0.009194579906761646,-9.889595985412598,0.9997231364250183,0.01659058965742588,0.01668933406472206,0.00011306376836728305,1.7726497521616087e+18,0.10000003129243851,0.10000003129243851,3.0,58.848026275634766,43.61086196937654,3.8768758838386517,1772649751958095.0,-1.068318486213684,1.070473551750183,0.013737271539866924,1.0,1.7726497519580948e+18,59.01454544067383,100617.765625,1013.25,1.772649752158285e+18,0.2877650856971741,0.01850428618490696,0.1865197718143463,1.7726497521582008e+18,8192.0,0.9999998807907104,0.0,0.0,0.0,0.0,0.0,0.0,1.7726497520835476e+18
2026-03-04T19:42:32.378+01:00,1772649752.379,3.3820228576660156,1.1871845722198486,-0.9474629163742065,1.6857062694680809,1,-0.03310764953494072,-0.0335383303463459,-0.0029606001917272806,0.00843620952218771,-0.009240242652595043,-9.858920097351074,0.9998108148574829,0.013711805455386639,0.01379320491105318,-0.0001228883775183931,1.7726497523201787e+18,0.10000003129243851,0.10000003129243851,3.0,58.84671401977539,43.61086098426228,3.8768772423246287,1772649752083918.0,-1.1178330183029175,1.119543194770813,0.0013916357420384884,1.0,1.7726497520839183e+18,58.51012420654297,100623.8046875,1013.25,1.7726497523660017e+18,0.2911405563354492,0.01597544178366661,0.1886538565158844,1.7726497523659036e+18,8192.0,0.9999998807907104,0.0,0.0,0.0,0.0,0.0,0.0,1.7726497522807985e+18
2026-03-04T19:42:32.581+01:00,1772649752.582,3.093938112258911,1.4754799604415894,-0.951572835445404,1.7530119035160898,1,-0.023365385830402374,-0.02430250123143196,-0.00018704388639889657,0.010199839249253273,-0.01104380376636982,-9.829987525939941,0.9998942613601685,0.010260246694087982,0.01030170451849699,-0.0003299470990896225,1.7726497525646444e+18,0.10000003129243851,0.10000003129243851,3.0,58.8477897644043,43.610858091737654,3.8768812284417447,1772649752302167.0,-1.1866071224212646,1.1877095699310303,-0.013281041756272316,1.0,1.7726497523021673e+18,58.4150505065918,100624.9140625,1013.25,1.7726497525645274e+18,0.28903600573539734,0.01254754327237606,0.17297379672527313,1.7726497525644334e+18,8192.0,0.9999998807907104,0.0,0.0,0.0,0.0,0.0,0.0,1.7726497524842977e+18
2026-03-04T19:42:32.782+01:00,1772649752.782,2.859513282775879,1.7099992036819458,-0.9558790922164917,1.8055106016177598,1,-0.0201102364808321,-0.020388280972838402,0.0013467291137203574,0.010153165087103844,-0.011043114587664604,-9.815980911254883,0.999927818775177,0.00848116260021925,0.008513889275491238,-0.0002770542341750115,1.772649752726223e+18,0.10000003129243851,0.10000003129243851,3.0,58.85132598876953,43.610855873943926,3.8768842829528243,1772649752505620.0,-1.2357733249664307,1.2364493608474731,-0.021016033366322517,1.0,1.7726497525056202e+18,59.05944061279297,100617.234375,1013.25,1.7726497527112325e+18,0.2960492670536041,0.01357631478458643,0.17878586053848267,1.772649752772161e+18,8192.0,0.9999998807907104,0.0,0.0,0.0,0.0,0.0,0.0,1.7726497526898665e+18
2026-03-04T19:42:32.980+01:00,1772649752.98,2.6319563388824463,1.9375929832458496,-0.9582488536834717,1.7239649727518895,1,-1.0920792818069458,-1.363703727722168,-0.06256403774023056,-0.02772735059261322,0.021705374121665955,-8.478371620178223,0.9810694456100464,-0.1445978730916977,-0.12881724536418915,-0.000600710220169276,1.772649752927459e+18,0.10000003129243851,0.10000003129243851,3.0,58.85604476928711,43.61085355026201,3.8768874822924326,1772649752711239.0,-1.2740287780761719,1.2743864059448242,-0.02452920190989971,1.0,1.7726497527112397e+18,59.0884895324707,100616.8828125,1013.25,1.772649752924412e+18,0.3389281630516052,-0.037411168217659,0.086480513215065,1.7726497529244262e+18,8192.0,0.9999998807907104,0.0,0.0,0.0,0.0,0.0,0.0,1.7726497528818944e+18
2026-03-04T19:42:33.191+01:00,1772649753.192,2.419367551803589,2.148191213607788,-0.9217168688774109,1.3045854586050458,1,0.7987479567527771,0.34095415472984314,-0.09898634254932404,0.008828982710838318,-0.015499323606491089,-13.99483585357666,0.9871090054512024,-0.11918050795793533,-0.10662375390529633,-0.006570018362253904,1.772649753127999e+18,0.10000003129243851,0.10000003129243851,3.0,58.85748291015625,43.61085132787166,3.876890540897814,1772649752903398.0,-1.2683414220809937,1.2635623216629028,0.06660893559455872,1.0,1.772649752903398e+18,58.55501937866211,100623.2734375,1013.25,1.7726497531119232e+18,0.322955459356308,-0.02839856594800949,0.11246325075626373,1.7726497531119434e+18,8192.0,0.9999998807907104,0.0,0.0,0.0,0.0,0.0,0.0,1.7726497530696591e+18
2026-03-04T19:42:33.385+01:00,1772649753.385,2.240572452545166,2.323768377304077,-0.883510410785675,0.7076492772388071,1,0.2569996118545532,0.3235205411911011,-0.07541460543870926,0.01603144407272339,-0.013382244855165482,-15.656524658203125,0.9927789568901062,-0.08257246017456055,-0.08593018352985382,-0.013702207244932652,1.772649753329234e+18,0.10000003129243851,0.10000003129243851,3.0,58.80910873413086,43.61084928279917,3.876893336642536,1772649753111931.0,-0.9307395219802856,0.9367029070854187,0.35622769594192505,1.0,1.7726497531119314e+18,58.4018440246582,100625.09375,1013.25,1.7726497533292244e+18,0.31664130091667175,-0.00697146262973547,0.11827806383371353,1.7726497533082332e+18,8192.0,0.9999998807907104,0.0,0.0,0.0,0.0,0.0,0.0,1.7726497532659364e+18
2026-03-04T19:42:33.591+01:00,1772649753.592,2.1781749725341797,2.3810088634490967,-0.9414687156677246,0.3681296852193082,1,0.24378158152103424,0.18197205662727356,-0.03316550329327583,0.004732973873615265,-0.006076434627175331,-8.546927452087402,0.9944934248924255,-0.07433029264211655,-0.0712302178144455,-0.01959945075213909,1.7726497535314486e+18,0.10000003129243851,0.10000003129243851,3.0,58.78360366821289,43.61084801378579,3.8768950379221687,1772649753308225.0,-0.5624213814735413,0.5346516966819763,-0.004888563882559538,1.0,1.7726497533082255e+18,58.290924072265625,100626.40625,1013.25,1.7726497535193743e+18,0.3241884410381317,0.0006922028260305524,0.12725010514259338,1.7726497535193876e+18,8192.0,0.9999998807907104,0.0,0.0,0.0,0.0,0.0,0.0,1.772649753455982e+18
2026-03-04T19:42:33.785+01:00,1772649753.786,2.161250591278076,2.386258602142334,-0.9985787868499756,0.19295226668280024,1,0.1560702919960022,0.1580163985490799,-0.01419136207550764,0.004218291491270065,-0.004084140993654728,-9.249728202819824,0.9968806505203247,-0.05211076885461807,-0.05525769293308258,-0.021450724452733994,1.7726497537337554e+18,0.10000003129243851,0.10000003129243851,3.0,58.85624694824219,43.61084738710699,3.8768958156163227,1772649753519380.0,-0.1583121418952942,0.11228238046169281,-0.3424549698829651,1.0,1.772649753519381e+18,58.9722900390625,100618.28125,1013.25,1.772649753730758e+18,0.32174792885780334,0.014106150716543198,0.14112231135368347,1.7726497537307745e+18,8192.0,0.9999998807907104,0.0,0.0,0.0,0.0,0.0,0.0,1.772649753667236e+18
